t,ax,ay,az
0,0.0,0.0,0.0
0.01,0.0,0.0,0.0
0.02,0.0,0.0,0.0
0.03,0.0,0.0,0.0
0.04,0.0,0.0,0.0
0.05,0.0,0.0,0.0
0.06,5.1334261130014935,-0.30858981600143487,1.3278391394209759
0.07,24.189445079130685,-1.4541197714407583,6.256969756629768
0.08,43.25549463575002,-2.6002527039183403,11.18869493940766
0.09,62.336144984508906,-3.747263345680256,16.124196840276486
0.1,91.384690604802,-5.49348217707087,23.638047233523533
0.11,93.45380209657593,-5.617864357797271,24.173254551623362
0.12,95.52594949038391,-5.74242903817,24.709247152194486
0.13,97.60052660395321,-5.867139778261441,25.2458682369253
0.14,99.67816839807648,-5.992034747985768,25.78328204813152
0.15,101.7590177025952,-6.117122533389322,26.321525530935123
0.16,97.77277669983249,-5.8774943882672215,25.290423357432097
0.17,93.78022837732141,-5.637487086106956,24.2576896992554
0.18,89.78074024680339,-5.397062605627809,23.223160953648055
0.19,85.77524884252033,-5.156277245473803,22.187079369508616
0.2,81.76433165208631,-4.915165720627226,21.1495943228366
0.21,82.0573602488051,-4.932780786813839,21.225390648940788
0.22,82.3505629604381,-4.950406319711799,21.30123201252925
0.23,82.6441066604581,-4.968052350721797,21.377161577976743
0.24,82.93784166021494,-4.985709881488347,21.453140626025586
0.25,83.23164207867949,-5.003371344822844,21.52913659562325
0.26,83.52550596619514,-5.021036623523991,21.605148982461234
0.27,83.81959032739412,-5.038715155738849,21.68121839818782
0.28,84.11413555853827,-5.0564213926032835,21.757407024971094
0.29,84.40874864253288,-5.0741317083612625,21.83361320293142
0.3,84.70342811349745,-5.09184601489312,21.909836552896387
0.31,84.99818279160725,-5.109564842413224,21.98607935633917
0.32,85.29349865377063,-5.127317404846429,22.062467318616296
0.33,85.58892721837712,-5.145076742253193,22.138884433103232
0.34,85.88442339656858,-5.162840144170341,22.21531903687754
0.35000000000000003,86.17999143388452,-5.180607865813441,22.29177222811291
0.36,86.47593254971324,-5.19839801462839,22.368321921808906
0.37,86.86435044538916,-4.292037727747873,22.236337892708175
0.38,87.1603219848716,-4.3063345638063915,22.314978766969173
0.39,87.45640587440039,-4.320841055884751,22.393490832055207
0.4,87.75261642769694,-4.3355726100791845,22.47186424219865
0.41000000000000003,88.04941023598249,-4.350558011643294,22.550210054018265
0.42,88.34629509038228,-4.365783064469447,22.628386816534125
0.43,88.64326845979839,-4.38125886794044,22.706381784156516
0.44,88.94033498049198,-4.39699738278537,22.78418385833735
0.45,89.23798651573624,-4.4130532482476745,22.861901271201884
0.46,89.53583666422577,-4.429389743925931,22.939434612884096
0.47000000000000003,89.83382206859467,-4.446029254792739,23.01674816253544
0.48,90.13189514181279,-4.462982534784336,23.093816816153623
0.49,90.43007044612278,-4.480264610490931,23.170631523240424
0.5,90.73728218343075,-4.498443176400961,23.249482425304826
0.51,90.8653223506429,-4.506198336358505,23.28168422753592
0.52,90.99334178663483,-4.514329315929064,23.31355785992894
0.53,91.12140594594725,-4.5228575799485835,23.34510720580835
0.54,91.24945399819914,-4.5317886350800975,23.376308539771873
0.55,91.37745918975583,-4.541143834635511,23.407140855375943
0.56,91.50548064613433,-4.550956234023628,23.437602443491958
0.5700000000000001,91.63352204224233,-4.561222002814146,23.46769514252609
0.58,91.76151444069374,-4.571967538116358,23.497385734840115
0.59,91.88955038726743,-4.583231721804761,23.526682541124572
0.6,92.01760533841681,-4.595006733738133,23.555584168862858
0.61,92.14559376513014,-4.607321873680483,23.584054930276334
0.62,92.27363440567309,-4.620221569464977,23.612112067815637
0.63,92.40166949418496,-4.633693397667008,23.63975105747469
0.64,92.52965373399395,-4.647790961789484,23.666940651898592
0.65,92.65774293008693,-4.66251139929289,23.69373601590451
0.66,92.7857507722223,-4.677885213024908,23.72008026399976
0.67,92.91375850526558,-4.693969975609792,23.745982956928007
0.68,93.0418552471617,-4.710739225050809,23.771496374280375
0.6900000000000001,93.16989616706294,-4.728237676173499,23.796575562950387
0.7000000000000001,93.29791243177772,-4.74649262652091,23.821236229698375
0.71,93.42581690190327,-4.7655244271502095,23.84546588156222
0.72,93.55370163279771,-4.785408242932862,23.869282304001302
0.73,93.68173051916523,-4.806091813287328,23.89278016814636
0.74,93.80968859979116,-4.827631659817773,23.91590330820501
0.75,93.93752712839243,-4.850050117277086,23.938660092436127
0.76,94.06529611908678,-4.873374992954213,23.961087559588535
0.77,94.19295892749993,-4.8976745783701086,23.98318603499944
0.78,94.3207290957746,-4.922892535495855,24.005076461528567
0.79,94.448375414228,-4.949083642135095,24.02671561407327
0.8,94.57588599525064,-4.976268307110165,24.048138146379035
0.81,94.70325276544982,-5.004511418388315,24.069368096418156
0.8200000000000001,94.830632402874,-5.033748636321941,24.09052175433458
0.8300000000000001,94.95789491641577,-5.064033789448888,24.111599000893467
0.84,95.08493198424284,-5.095373735336789,24.13262454772673
0.85,95.21182047496603,-5.127783414939738,24.153675146027034
0.86,95.33862414133475,-5.161324235618139,24.17481308117616
0.87,95.46523139963038,-5.195895169556706,24.19610118199418
0.88,95.59164528045127,-5.231545927535736,24.217594152070856
0.89,95.71776126709527,-5.268266627125965,24.23933585518519
0.9,95.84370414689582,-5.306108635917866,24.26142106440481
0.91,95.96944547290845,-5.344952840807415,24.283943068648405
0.92,96.09488899062238,-5.384827149128633,24.30694505622585
0.93,96.21996651757705,-5.42570314775309,24.330491647526024
0.9400000000000001,96.34481166180345,-5.467611701716681,24.354693284072397
0.9500000000000001,96.46937774436174,-5.510406327822219,24.37964042718
0.96,96.59353621537758,-5.554089172187366,24.40537763494371
0.97,96.71728478590335,-5.5986087939711,24.431991575720392
0.98,96.84067868996362,-5.643940425294856,24.459580500555795
0.99,96.96366197552297,-5.689969405968306,24.48821992554717
1.0,97.09274206017732,-5.737022017620001,24.519676326257077
1.01,97.0901953240285,-5.776747770077838,24.518405299653217
1.02,97.08705333692828,-5.816914090441921,24.518377921295897
1.03,97.08326982954134,-5.857437269539241,24.519654579290354
1.04,97.07883344610848,-5.8981928273430935,24.522299701217946
1.05,97.07374721870947,-5.939092633005123,24.526348931705563
1.06,97.06805699515401,-5.980095818316476,24.53166092437834
1.07,97.06169950249692,-6.0209957245185795,24.538495901045195
1.08,97.05478444248588,-6.061870288389892,24.54648918246302
1.09,97.04721801631462,-6.102429150182224,24.55600134311894
1.1,97.0389594484881,-6.1424756393883255,24.567103735320607
1.11,97.03005075566284,-6.181882009690142,24.579816115681894
1.12,97.02050198461487,-6.220473082982908,24.594129088807588
1.1300000000000001,97.01032157147644,-6.258105140983275,24.610023939257456
1.1400000000000001,96.99954388174166,-6.294624257746188,24.62747160022186
1.1500000000000001,96.98817118243515,-6.32988733463276,24.646421748743567
1.16,96.97618897537873,-6.36371725276994,24.666794813998976
1.17,96.96366515004354,-6.3959828179883536,24.68852514728579
1.18,96.9506630604026,-6.4265467907557845,24.71152625136326
1.19,96.93721876703954,-6.455278927097394,24.735688248136178
1.2,96.92328921535318,-6.482062029449409,24.760866469126515
1.21,96.90894182075229,-6.5067760199173605,24.7869249473878
1.22,96.89427643691158,-6.529340844040202,24.813727289596176
1.23,96.87931611011322,-6.5496810465420365,24.84110273052766
1.24,96.86410632006012,-6.567741822600762,24.868875484703025
1.25,96.84863313832821,-6.58348807412417,24.89684401614115
1.26,96.83302795767868,-6.596907841001073,24.924842065861107
1.27,96.81728481813114,-6.60801459812884,24.952660868923275
1.28,96.8015509487144,-6.616853181852029,24.980131756605502
1.29,96.78575926793306,-6.623482071099435,25.00702827965212
1.3,96.76993058477794,-6.627990737161686,25.033168524621132
1.31,96.75420468919052,-6.630504165907459,25.05839745375589
1.32,96.73859231985605,-6.631165009758965,25.08254552655758
1.33,96.72312009107917,-6.630142182903805,25.105466322951383
1.34,96.70771372164319,-6.627623317955978,25.127000103329273
1.35,96.69246966074151,-6.62382237927222,25.14708724339385
1.36,96.67741637433402,-6.618971719980205,25.1656524527213
1.37,96.66251324273614,-6.613312782455493,25.182646737997636
1.3800000000000001,96.64773158027043,-6.607097699104349,25.1980436724561
1.3900000000000001,96.63301104174715,-6.600578702860204,25.211901789071344
1.4000000000000001,96.61837557651357,-6.594014555997375,25.224291455035182
1.41,96.60375801903876,-6.58765000002403,25.23531988756406
1.42,96.58917852764432,-6.5817211053252,25.24516013911951
1.43,96.57453216977682,-6.5764347921704545,25.253995941245343
1.44,96.55969924488565,-6.571968573378545,25.262047849677273
1.45,96.54461069817347,-6.568474638593706,25.269564117038552
1.46,96.52916904952109,-6.56603671678147,25.276887463681792
1.47,96.51331025849693,-6.564714201624762,25.28432804114464
1.48,96.49695749001174,-6.564501277501845,25.292235372462034
1.49,96.4800341755491,-6.5653301090480385,25.300970439942063
1.5,96.46625350625851,-6.567301074547379,25.31186618389274
1.51,96.37619924763487,-6.5654312321316315,25.304768407515493
1.52,96.28522608344102,-6.563982573526958,25.299516751014448
1.53,96.19321745272161,-6.562606135535615,25.29639932172362
1.54,96.10018560957397,-6.560891220241301,25.29569146446902
1.55,96.00616348034623,-6.558364512534307,25.29761213540661
1.56,95.9111645300124,-6.554493226881178,25.302301032102744
1.57,95.81494892054164,-6.5486809853002885,25.30974539525932
1.58,95.71777845876514,-6.540322965977363,25.319968974135076
1.59,95.61979597911032,-6.528784878311814,25.33285106438896
1.6,95.5210126439258,-6.513417232506301,25.348122463642817
1.61,95.42136821733263,-6.493575069026331,25.36537384730485
1.62,95.32126071529342,-6.468674094694503,25.38418949525302
1.6300000000000001,95.22088486301197,-6.438168518552673,25.40397701269669
1.6400000000000001,95.12037433204458,-6.401582471296856,25.424008171251803
1.6500000000000001,95.01982558784366,-6.358532669280622,25.443433195776002
1.6600000000000001,94.91970201903086,-6.3087771198297995,25.461398264730818
1.67,94.82028688951927,-6.25219925334616,25.47692000362113
1.68,94.72165803898181,-6.188827555232843,25.488898918235986
1.69,94.62411605563948,-6.118875698149385,25.49625574976928
1.7,94.52806651700215,-6.042750981756398,25.49792992493503
1.71,94.43370547091618,-5.961037856131561,25.49282808297272
1.72,94.3411430058839,-5.87451433027939,25.479890607716904
1.73,94.25060965671342,-5.784158750768647,25.458180897354936
1.74,94.16236406137138,-5.691137178957607,25.426897387554916
1.75,94.07640538293445,-5.596770406524814,25.38533414434304
1.76,93.99267363652856,-5.502524403144104,25.332966313274763
1.77,93.91125027842273,-5.409995838799894,25.26953470507241
1.78,93.83206447468574,-5.320859399055373,25.19499495275003
1.79,93.75501711147615,-5.236835634666833,25.10957037209321
1.8,93.67988039809367,-5.15964031479058,25.013740007446465
1.81,93.60641258254378,-5.090943757685762,24.908274660958412
1.82,93.53408723901103,-5.032304082032794,24.794164021012076
1.83,93.46236961007637,-4.985132630989624,24.67267531680147
1.84,93.39091327067148,-4.950655978077641,24.545384374613555
1.85,93.31926486331815,-4.929850621102776,24.414065332973063
1.86,93.24691259933499,-4.92340291077174,24.280661831859955
1.87,93.17334407270293,-4.931676424187336,24.147251486610458
1.8800000000000001,93.09798559035258,-4.954683527914755,24.015973018557858
1.8900000000000001,93.02021623594221,-4.992066942378009,23.88896833954436
1.9000000000000001,92.93930070024668,-5.043085903423362,23.7682930648897
1.9100000000000001,92.85505301892903,-5.1066677122956925,23.656021369674
1.92,92.76708784453376,-5.1813809602699425,23.553983762834203
1.93,92.67508953478634,-5.2654826891677144,23.463769677888834
1.94,92.57892016039939,-5.35697160974437,23.38669668762194
1.95,92.47847295126363,-5.4536360895580716,23.323723369738225
1.96,92.37343685450377,-5.553106606301764,23.275349575956007
1.97,92.26394484921907,-5.65296896629259,23.241759512800925
1.98,92.15038349186707,-5.750834388824488,23.22276301755372
1.99,92.0327572948932,-5.844382064638874,23.21763937640644
2.0,91.913231776456,-5.931592667386067,23.225819833315285
2.0100000000000002,91.74374897080403,-6.007674763608531,23.233379451270586
2.02,91.57184861126768,-6.073896265173979,23.250813527630598
2.0300000000000002,91.397994975845,-6.1290652026092936,23.276205669739355
2.04,91.22280236199698,-6.172408623066219,23.307527245312627
2.05,91.04681924947648,-6.203577975256545,23.34267169772816
2.06,90.87055340369609,-6.222657479971739,23.379557449606782
2.07,90.69450389393951,-6.230144001053745,23.416230234384486
2.08,90.51921861922139,-6.226913906848692,23.450966561465336
2.09,90.34501872746667,-6.214147589886293,23.482280322562552
2.1,90.17198164029935,-6.193254778824056,23.508985129343266
2.11,89.9998865864965,-6.165781214702262,23.530210529735886
2.12,89.82917837963124,-6.133373602468708,23.54569306099046
2.13,89.65978491512463,-6.097600164081913,23.5554593744648
2.14,89.49136975146757,-6.059871168799435,23.559859390349466
2.15,89.32376710250585,-6.021365534522664,23.559630927212336
2.16,89.15635328545513,-5.982919190471506,23.555663610631072
2.17,88.98911015288306,-5.9450387724405225,23.549159990124874
2.18,88.82160849560047,-5.9077750992663915,23.541294725071285
2.19,88.65374206985675,-5.870781156037472,23.53326072755887
2.2,88.48531462313224,-5.833300408259252,23.52604806300866
2.21,88.31567133270312,-5.794188630484032,23.520240067544812
2.22,88.14477765523017,-5.752089643224818,23.51617499653867
2.23,87.97329286558217,-5.705497108174097,23.513911914259083
2.24,87.80145969906734,-5.652847817887089,23.512876070353432
2.25,87.62950594596536,-5.592678029970653,23.511952496554112
2.2600000000000002,87.45776132712545,-5.523751899318279,23.509549249181074
2.27,87.28686343840462,-5.445269259269233,23.503683690391032
2.2800000000000002,87.11765489382938,-5.356932274342342,23.492075637341568
2.29,86.95054441900173,-5.259031627649182,23.472115391413165
2.3000000000000003,86.78634127885141,-5.1525742306500675,23.44122993784071
2.31,86.62550382817308,-5.039268671180071,23.396882038249025
2.32,86.46828405164905,-4.92151456845516,23.33679638759991
2.33,86.3150025356805,-4.802371334515771,23.259216591815424
2.34,86.16599635902692,-4.68543715607804,23.163072297498367
2.35,86.02112340346277,-4.574672273857841,23.048001361865744
2.36,85.8798760234001,-4.474209420939028,22.914483686934453
2.37,85.74108205493748,-4.388124158007798,22.763821883875515
2.38,85.60456759574544,-4.320291176229384,22.598582315998485
2.39,85.46930054479911,-4.274034346710886,22.422047947691834
2.4,85.33392334535856,-4.251946090832279,22.238231148521894
2.41,85.1970797506298,-4.25569992174546,22.051799458313933
2.42,85.05760757329757,-4.2858998937194235,21.867880872333593
2.43,84.91420221525912,-4.341981806492694,21.69171479593464
2.44,84.76522353904853,-4.422142029288947,21.528325187441894
2.45,84.60957583899115,-4.523456219863119,21.3824261306029
2.46,84.44690205189288,-4.641958277426816,21.25821343569026
2.47,84.27667459949575,-4.7727945367874405,21.15886211804317
2.48,84.09841604431816,-4.910459774775996,21.086415331887643
2.49,83.91238840485623,-5.0491089199518395,21.041776037810386
2.5,83.71489961884258,-5.182600123345502,21.023461593086047
2.5100000000000002,83.58939004407563,-5.310291580428181,21.051201313512827
2.52,83.45813745023698,-5.42240016500689,21.101788796255537
2.5300000000000002,83.32258372108244,-5.514748155250647,21.171441189446128
2.54,83.18429638415707,-5.58421949710451,21.255609690276067
2.5500000000000003,83.04469686306008,-5.62890041046296,21.349206327442943
2.56,82.90468659901649,-5.648126817473934,21.44684246783894
2.57,82.76592034102242,-5.642533256619499,21.543477383685854
2.58,82.62964392190852,-5.613911032916062,21.634448095935333
2.59,82.49667122244433,-5.565003210848878,21.715747057044346
2.6,82.3776194005578,-5.499882071629918,21.78684865503666
2.61,82.26535391694918,-5.422016246036442,21.843747069889396
2.62,82.15753198530524,-5.335288576360931,21.884814339215637
2.63,82.05379230915104,-5.243544750059071,21.910006263070397
2.64,81.95450054064014,-5.150234420692456,21.92042380508905
2.65,81.85857602109783,-5.058044580938221,21.91751980651626
2.66,81.7651423993644,-4.968860994828123,21.903255609437377
2.67,81.67362180402668,-4.88371002050998,21.879826905330646
2.68,81.58350300638463,-4.802776721938739,21.8492985904401
2.69,81.49437506026472,-4.725532326575233,21.81334165939958
2.7,81.40597480144436,-4.650935609270716,21.77303030902648
2.71,81.31829695429087,-4.57770343008041,21.728727851742242
2.72,81.23153479809298,-4.504607854633052,21.680035268763493
2.73,81.14603981666673,-4.4307634419409085,21.62584079785121
2.74,81.0622462994544,-4.355898745018181,21.564461996697155
2.75,80.98064045440807,-4.280570652249107,21.49389173602586
2.7600000000000002,80.90165820970489,-4.206275894981047,21.412092561943158
2.77,80.82561716462364,-4.135471007186757,21.317333377821534
2.7800000000000002,80.7525651841358,-4.071467723098244,21.208504289953147
2.79,80.68237469843785,-4.018229194356247,21.085467120623232
2.8000000000000003,80.61447219304291,-3.98004205381549,20.949214854696304
2.81,80.5480087443695,-3.961150302084154,20.802069174566185
2.82,80.48186722049873,-3.965316987027978,20.6476929458113
2.83,80.41454330911166,-3.9953852042831537,20.49092226231963
2.84,80.34448295553402,-4.052913320268091,20.337585804465995
2.85,80.27006662560397,-4.137851586449138,20.194120995815474
2.86,80.18959480744917,-4.248346901434718,20.067076821897356
2.87,80.10179061770265,-4.380724223129185,19.962703585346333
2.88,80.00556712848368,-4.529577777923696,19.886347087282587
2.89,79.90025593284935,-4.688051897337403,19.842000396566547
2.9,79.79717228998233,-4.848946539678932,19.83488826596457
2.91,79.4694733376632,-4.990197075836637,19.80648987358498
2.92,79.13390200871324,-5.11644541077191,19.81075879684745
2.93,78.79190564971871,-5.220046807775225,19.843770945618928
2.94,78.44536093257732,-5.29461772066716,19.89978714410757
2.95,78.0963408216904,-5.335498524728737,19.97160113129972
2.96,77.74712537875914,-5.34010841817263,20.051113557901466
2.97,77.4001064803961,-5.308131236707482,20.129913015040046
2.98,77.0572851131178,-5.241463206926624,20.199825811682345
2.99,76.72011100945384,-5.14401805317312,20.253486935005288
3.0,76.49595267932679,-5.027744232870067,20.312419044464207
3.0100000000000002,74.24051322085353,-4.770585334717115,19.817470058497076
3.02,71.98867777905168,-4.502092467035791,19.29276761848959
3.0300000000000002,69.74400840189693,-4.229696139173091,18.73901115745735
3.04,67.50581370031732,-3.960043699294858,18.157633544332477
3.0500000000000003,65.2726093999422,-3.6986576782665708,17.551367618424393
3.06,63.04468635925691,-3.44984973712919,16.92443352163141
3.0700000000000003,60.81981056342132,-3.2162715350189304,16.280891750524656
3.08,58.59687786128342,-2.999242740871181,15.625101219633148
3.09,56.375984135984844,-2.7988687667673213,14.961240168935406
3.1,54.154909536435255,-2.614201601252006,14.292067956701
3.11,51.93461079969538,-2.4440533536169955,13.620297606018955
3.12,49.71390622619254,-2.2869523230333986,12.946979495532856
3.13,47.49369339623056,-2.14192781784229,12.273080342984906
3.14,45.27332305778055,-2.0084450693399445,11.59847317758474
3.15,43.0534951079241,-1.8868039455007994,10.923472270177172
3.16,40.83368377466759,-1.7779722355142336,10.248154493598458
3.17,38.614050963906884,-1.6834042775221598,9.573659935791845
3.18,36.39385225608146,-1.6048165272593984,8.901621579070614
3.19,34.172569902881435,-1.5435870021684885,8.234971925742471
3.2,31.94918877645562,-1.5005594250887797,7.577375769404162
3.21,29.72269015830218,-1.4753062449116794,6.933370481422256
3.22,27.491961557774395,-1.4661451269282442,6.307778107058878
3.23,25.25595635250234,-1.4695863913250427,5.705319441359046
3.24,23.014601102431907,-1.480713279135871,5.1302183752420945
3.25,20.767386309941973,-1.4931314831687044,4.585286890650448
3.2600000000000002,18.513787685844633,-1.4993230196318656,4.0715302467662475
3.27,16.25550913177783,-1.4914788657559614,3.5883874761296743
3.2800000000000002,13.99378997306629,-1.4618870647280409,3.1328841996183474
3.29,11.729944008874257,-1.4036760605791883,2.6998257729034547
3.3000000000000003,9.401843070044148,-1.3076047881315709,2.265731601387144
3.31,8.286288529033769,-1.2469604834785828,2.1519887686440557
3.3200000000000003,7.1747598384605045,-1.1479838106722329,2.0363768396418687
3.33,6.069467459909706,-1.0122121898283902,1.909823918543391
3.34,4.972364058287125,-0.8436055799717539,1.7639121389853332
3.35,3.884945042361116,-0.6482434910979747,1.5915063259270945
3.36,2.808131605630074,-0.4338450052350848,1.3872780979098618
3.37,1.7422122330036949,-0.20910638726426944,1.148052736690185
3.38,0.6869885544719341,0.01689099238523971,0.873003269842189
3.39,-0.35842733536631327,0.23542983171122395,0.5635331492191088
3.4,-1.4322387818300713,0.44098825130169084,0.21350427387966364
3.41,-1.8100093190560371,0.5835934729684211,0.015758464995611676
3.42,-2.18360425288711,0.700158938742865,-0.20207142993078045
3.43,-2.5549272313621905,0.7879924194966708,-0.43331863334769555
3.44,-2.925771228098646,0.8462249319384056,-0.6712809493394168
3.45,-3.297709180272639,0.8756169714288731,-0.9096890550855328
3.46,-3.6720389797332595,0.8782348089237131,-1.1430630672533755
3.47,-4.0497498571629125,0.8570683737435245,-1.3669232244474656
3.48,-4.431494948120565,0.8156285024724045,-1.5778551462299726
3.49,-4.817663757366029,0.7575952519745981,-1.7734665149513593
3.5,-5.2084396187124105,0.6865510542141865,-1.952230803757578
3.5100000000000002,-5.60385364504368,0.6057877951075644,-2.113268983071219
3.52,-6.0038657720681545,0.5182526366437241,-2.256138128950585
3.5300000000000002,-6.408373857032982,0.4266086094337531,-2.3805943925857607
3.54,-6.81726371862093,0.3332935565191698,-2.486445340033545
3.5500000000000003,-7.2303687684622275,0.24103046677002576,-2.573715854746636
3.56,-7.645758593808032,0.1584307787693578,-2.6493996738643495
3.5700000000000003,-8.062543042668791,0.08340862389081252,-2.716595142896157
3.58,-8.482985935855403,0.010141364381471701,-2.7672547995035366
3.59,-8.907373075443966,-0.058088145457183035,-2.799459298639711
3.6,-9.33571489619316,-0.11677606412501677,-2.812136613657252
3.61,-9.767621403656795,-0.1605503923350588,-2.8055614121420387
3.62,-10.20222961196669,-0.1836915498790709,-2.781698596742836
3.63,-10.638229651300877,-0.18075341300014214,-2.7444150602435076
3.64,-11.073886335223644,-0.1472717701826349,-2.699363983528991
3.65,-11.507174956199675,-0.08038781686318927,-2.653719566321021
3.66,-11.935936965633076,0.02064083050696605,-2.615664409120764
3.67,-12.358048081461009,0.1541074289709745,-2.5937243080851844
3.68,-12.77166534300299,0.3158348768866509,-2.596035525732291
3.69,-13.175380808381858,0.4992816856807085,-2.629586063289867
3.7,-13.56836568285419,0.6960022392332927,-2.699545623025728
3.71,-13.950472792718747,0.8962647698772495,-2.8087467429109707
3.72,-14.322250032274232,1.0897957613699383,-2.9573575082226413
3.73,-14.684925308796121,1.2666626624526272,-3.142913052846541
3.74,-15.040361332980556,1.4179750063153234,-3.3603771425369375
3.75,-15.390828261506954,1.5366309951444816,-3.6026277205389454
3.7600000000000002,-15.738851033711537,1.6178179832463893,-3.8610288677181037
3.77,-16.086987155565147,1.6593191342393039,-4.12609673259062
3.7800000000000002,-16.437614735134456,1.661515908324623,-4.388390550800209
3.79,-16.792921907202093,1.6273099232472734,-4.639034660131379
3.8000000000000003,-17.15457569908912,1.5616778885209914,-4.87044297812183
3.81,-17.52370414908893,1.4711590522657039,-5.076751230805166
3.8200000000000003,-17.90086677674823,1.3632341339032414,-5.254074802935447
3.83,-18.2860724241738,1.245690888253315,-5.400587503386374
3.84,-18.67884743982197,1.1260303370041878,-5.516395357600369
3.85,-19.078300624731817,1.0109964001524565,-5.60326538594284
3.86,-19.483239192955075,0.9061480546384987,-5.6642000014556135
3.87,-19.8925036335424,0.8157976047348218,-5.70311571293498
3.88,-20.304814915917778,0.7428883888455674,-5.7242895059954115
3.89,-20.71896462188178,0.6891356374745992,-5.732010479651096
3.9,-422.1332955489707,24.760846182550317,-109.45492370070072
3.91,-21.154632472415166,0.6174846403680955,-5.620759103307669
3.92,-21.152673008788238,0.5977525657024441,-5.502694685861045
3.93,-21.14975717417396,0.5967128891813314,-5.384425452361147
3.94,-21.145361326177674,0.6136764798495404,-5.268135065477608
3.95,-21.139002185337137,0.6480366778494138,-5.155832101762521
3.96,-21.130189191778165,0.6992623659740695,-5.049535796326346
3.97,-21.11839035533864,0.7667990744843647,-4.951431682922075
3.98,-21.103018063130076,0.8498997503700658,-4.863963920734813
3.99,-21.083439863591614,0.9474177090075317,-4.789842169307507
4.0,-21.059013873031777,1.0575997443914587,-4.731953499554191
4.01,-21.029144871020204,1.1779181288026754,-4.693183893451916
4.0200000000000005,-20.993354789198463,1.3049756012931737,-4.676167742461362
4.03,-20.951358452578347,1.4345084577596032,-4.682994316356124
4.04,-20.9031344151624,1.5615003961788405,-4.714907540668089
4.05,-20.848980921700413,1.6804059106771356,-4.772037896406362
4.0600000000000005,-20.789548427038486,1.7854680543570003,-4.853203083091506
4.07,-20.725842591712688,1.8711031292817526,-4.955807312631368
4.08,-20.659194869576655,1.9323161984979995,-5.075858746825079
4.09,-20.59120135417194,1.9651061259255316,-5.208112070035701
4.1,-20.523634107850185,1.9668188934622965,-5.346329424868617
4.11,-20.458332176348044,1.9364125777280663,-5.483640349678347
4.12,-20.397081767468034,1.8746057262021647,-5.612970623735644
4.13,-20.341496221666514,1.7838925211352847,-5.7275027042789715
4.14,-20.292906533689028,1.6684212449416194,-5.82112717374427
4.15,-20.25227211119238,1.5337459120740524,-5.88884564062087
4.16,-20.22011907469446,1.3864730105481318,-5.927090631322633
4.17,-20.196511288070397,1.2338348028475186,-5.933936665874568
4.18,-20.18105436848404,1.0832256468484904,-5.909192159710036
4.19,-20.172938066973437,0.9417453918782388,-5.854341627116298
4.2,-20.170995420558544,0.8157776862869269,-5.772414424278354
4.21,-20.173794547476806,0.7106465017272476,-5.667709712659173
4.22,-20.179736959431636,0.630365856590565,-5.545474333120618
4.23,-20.187160623138187,0.5775032372899727,-5.41153609399701
4.24,-20.194439702399198,0.5531433707821096,-5.271926553981079
4.25,-20.20007098599106,0.5569651976784789,-5.132529111601639
4.26,-20.202741516231672,0.5874014374020231,-4.998780605361031
4.2700000000000005,-20.201375695012615,0.6418583210513296,-4.875438295407762
4.28,-20.195160105118592,0.7169708593016393,-4.766424747404573
4.29,-20.18354674706153,0.8088687755008062,-4.67475370932433
4.3,-20.172126799036285,0.9137674690813695,-4.604059189257255
4.3100000000000005,-20.1585202080749,1.0273576455543731,-4.554987964231334
4.32,-20.13920651335829,1.145373036368192,-4.527091352139832
4.33,-20.11445175835479,1.2639874390297603,-4.520227691632443
4.34,-20.084639052893,1.3796618476016205,-4.533736298289485
4.3500000000000005,-20.050240870691344,1.4891629355495761,-4.566540254231589
4.36,-20.011799532807785,1.5895532360299054,-4.617224114502663
4.37,-19.96991648864589,1.6781685583696575,-4.684080560560692
4.38,-19.92524918969161,1.7525981802174904,-4.765127059506411
4.39,-19.878513111993335,1.8106809876492904,-4.858098925763801
4.4,-19.830485571816304,1.8505270894786627,-4.96042954794918
4.41,-19.7820076626314,1.870568676249924,-5.069231104845115
4.42,-19.733980806020938,1.8696387046875076,-5.1812896558327255
4.43,-19.687355152103194,1.8470704845438002,-5.293086895893854
4.44,-19.64310802864937,1.8028062979801076,-5.400858289132915
4.45,-19.60221218443942,1.7375005930729963,-5.500691913042089
4.46,-19.565594898005056,1.6526018416153458,-5.588667559715727
4.47,-19.534090613888143,1.55039803630982,-5.661029988067358
4.48,-19.508389965041374,1.4340133063869505,-5.714385066874282
4.49,-19.488990767907655,1.3073475602863391,-5.745904076752678
4.5,-19.47615486530252,1.1749567132806047,-5.753518828961831
4.51,-19.469875200272977,1.041875496367115,-5.73608959119432
4.5200000000000005,-19.469857183837927,0.9133927655740142,-5.693529179906526
4.53,-19.475516822528483,0.7947937290452896,-5.626869936076342
4.54,-19.48599683606547,0.6910836774019514,-5.538265427437187
4.55,-19.500200737458908,0.6067181020796474,-5.430921260128282
4.5600000000000005,-19.516842703545656,0.5453538458920354,-5.308959957897563
4.57,-19.53451050257815,0.5096425890901606,-5.177225560118318
4.58,-19.55173684638895,0.5010823936820321,-5.041042208856542
4.59,-19.567074378136443,0.5199360985944478,-4.905943188601362
4.6000000000000005,-19.579169572417523,0.5652232495631168,-4.777387134713138
4.61,-19.586829561521842,0.6347834829452423,-4.6604850289840245
4.62,-19.589079074409582,0.7254065832157135,-4.559749958949932
4.63,-19.585202344288454,0.8330198891852487,-4.478891726990413
4.64,-19.574769282111692,0.9529124226737369,-4.420663644461667
4.65,-19.55764512387349,1.079986018214134,-4.38676717742179
4.66,-19.533982432954723,1.2090127969435729,-4.377823395449509
4.67,-19.504199114095805,1.3348808936833174,-4.393400677405882
4.68,-19.46894416841319,1.452816211026408,-4.432095857897385
4.69,-19.429054328270396,1.55856842584781,-4.491658772262683
4.7,-19.38550576039735,1.6485526872537344,-4.569146121354625
4.71,-19.339363922594277,1.7199448133251378,-4.661093254156413
4.72,-19.291735170752926,1.7707310049911018,-4.763689708128134
4.73,-19.243722037420348,1.7997144511310248,-4.8729505657363825
4.74,-19.196385316315183,1.8064866310845051,-4.9848696633977685
4.75,-19.150712767319654,1.7913725610054498,-5.095553245377781
4.76,-19.10759541253055,1.7553571511859385,-5.201328655970788
4.7700000000000005,-19.067810545329184,1.7000022730067088,-5.298829228682828
4.78,-19.032010739662834,1.6273616956443053,-5.385056471778154
4.79,-19.000717308814295,1.53989761446383,-5.457424691701746
4.8,-18.974317265318803,1.4404039420513715,-5.513790518442164
4.8100000000000005,-18.95306150060993,1.3319371972878766,-5.552475934625872
4.82,-18.93706447249126,1.217750614475266,-5.5722857861028725
4.83,-18.926302740544344,1.1012325182407385,-5.572524729178353
4.84,-18.92061568588107,0.9858424910625372,-5.553011980932764
4.8500000000000005,-18.919705245869853,0.8750453480412104,-5.514096965269393
4.86,-18.923137178347854,0.7722363297114769,-5.456671628232821
4.87,-18.93034476837458,0.6806573303324934,-5.38217551559531
4.88,-18.94063596867529,0.6033041722941791,-5.292589650325802
4.89,-18.95320512861375,0.5428266153274387,-5.1904143555036315
4.9,-18.967150172994323,0.5014253173899873,-5.078626718397166
4.91,-18.98149564884744,0.4807508782476529,-4.960614889080436
4.92,-18.99522151996057,0.48181189341147823,-4.840088070817038
4.93,-19.0072972736148,0.5048995463118592,-4.720962147652192
4.94,-19.016719759244356,0.5495354336329368,-4.60722550017481
4.95,-19.022553360074046,0.6144492528938817,-4.502788886799889
4.96,-19.02397035720519,0.6975913005499425,-4.411326514607735
4.97,-19.02028885540387,0.7961820263192609,-4.336117954013876
4.98,-19.011006191351182,0.9067989067451477,-4.279898868385008
4.99,-18.995825451076847,1.025498159633162,-4.244730297044688
5.0,-18.974673253259912,1.1479662576929917,-4.231894768256959
5.01,-18.947707487040546,1.269693953278389,-4.241826281988982
5.0200000000000005,-18.915314081434254,1.386163803699262,-4.274079118379115
5.03,-18.87809294051733,1.493041108077671,-4.327338058224741
5.04,-18.836833584561166,1.5863578320330436,-4.399469937710507
5.05,-18.792481808612216,1.6626795017854894,-4.487613872419632
5.0600000000000005,-18.746099199122767,1.719246203529217,-4.588305088926678
5.07,-18.698817763265073,1.7540805351582822,-4.697625305542009
5.08,-18.651792167251315,1.7660575564776093,-4.811371159958796
5.09,-18.606152133085015,1.7549342643473858,-4.925231401390867
5.1000000000000005,-18.562957433434228,1.7213385808460497,-5.034963419118175
5.11,-18.523157639000548,1.6667202923749957,-5.136560214140863
5.12,-18.48755837933061,1.5932683418797167,-5.226399987338221
5.13,-18.45679543276866,1.503800749033275,-5.301371805536347
5.14,-18.43131711241436,1.4016342398326573,-5.35897389270214
5.15,-18.411375491102152,1.2904412103410379,-5.397380692999135
5.16,-18.397025878418006,1.1741017240840779,-5.415479182065698
5.17,-18.388133872789084,1.056557849320113,-5.412875391783229
5.18,-18.384388938245582,0.9416761850768072,-5.389873935808958
5.19,-18.38532298870749,0.8331234602647624,-5.347434270999946
5.2,-18.390333194825775,0.7342586811455618,-5.287108318323606
5.21,-18.398707040309798,0.6480437909735243,-5.21096402001844
5.22,-18.40964874057557,0.5769735309715636,-5.121499461688278
5.23,-18.42230591722212,0.52302410765588,-5.021551648221927
5.24,-18.43579571674272,0.4876194488032488,-4.914203353061598
5.25,-18.449229797567572,0.4716133382707746,-4.802690663253969
5.26,-18.461737838212613,0.47528548216987654,-4.690313013554731
5.2700000000000005,-18.472489440428173,0.498349635179541,-4.580346626300579
5.28,-18.480713914446866,0.5399737691409948,-4.475963366194296
5.29,-18.485718926417196,0.5988074594208157,-4.380152302329187
5.3,-18.486907097274887,0.673019789443329,-4.295646750495764
5.3100000000000005,-18.483790809991568,0.760346181899765,-4.224856189796919
5.32,-18.476005200782513,0.8581437957593143,-4.16980320395454
5.33,-18.46331891433226,0.9634561434065051,-4.132066933165156
5.34,-18.445642320744604,1.0730869696466827,-4.112734193509814
5.3500000000000005,-18.42303278409907,1.183683029623365,-4.1123599299821105
5.36,-18.395696621209545,1.2918250975019157,-4.130939407695342
5.37,-18.36398630038845,1.3941256653603649,-4.167894008018578
5.38,-18.328394381164184,1.487330874127874,-4.222073131867322
5.39,-18.289542125222987,1.5684247411002965,-4.291773688144202
5.4,-18.248163433549863,1.6347307625387817,-4.37477849389277
5.41,-18.205084222353072,1.684007577499591,-4.468413837033226
5.42,-18.161197585541515,1.7145343112854805,-4.56962571807466
5.43,-18.117435452063305,1.7251811755953819,-4.675073057846897
5.44,-18.07473765859237,1.7154614664027537,-4.7812352063500665
5.45,-18.03401960494209,1.6855614766254927,-4.884530048428502
5.46,-17.996139793113144,1.6363461764177307,-4.9814381722702885
5.47,-17.96186864420368,1.5693390748699243,-5.068628080908393
5.48,-17.93185998825297,1.486676235273256,-5.143077059341783
5.49,-17.90662661783726,1.3910362799571072,-5.202181895227269
5.5,-17.886520811244026,1.285547680826071,-5.243855649082073
5.51,-17.87172116511886,1.1736779463608085,-5.266604234020657
5.5200000000000005,-17.862225962653127,1.059109900464941,-5.2695807157919035
5.53,-17.857853599230047,0.9456085683594677,-5.2526145102205275
5.54,-17.85824996092892,0.8368861997935735,-5.216214109877136
5.55,-17.86290237226455,0.7364704517618015,-5.161543724848945
5.5600000000000005,-17.871159255479174,0.6475815599176211,-5.090375836576952
5.57,-17.882255090429364,0.5730220620430235,-5.005020120797088
5.58,-17.895338741338247,0.5150859674228097,-4.908235043585277
5.59,-17.909504475716098,0.47548838777178437,-4.803124259201485
5.6000000000000005,-17.92382397451544,0.45531829434585586,-4.693023813874728
5.61,-17.938379818029006,0.45942114062051637,-4.577009028874803
5.62,-17.953315465224176,0.5036132861116627,-4.451142274286937
5.63,-17.963210443281827,0.57121196176554,-4.339436427330917
5.64,-17.967268157940097,0.6577037068846187,-4.24601222514801
5.65,-17.965064093214156,0.7579683631294383,-4.173692822021676
5.66,-17.956528099117826,0.8666171163437338,-4.123994168314454
5.67,-17.94191674311832,0.9783282464276473,-4.097153971534543
5.68,-17.921763917408562,1.0881710342714268,-4.0922476640867105
5.69,-17.896816035123038,1.191863095151149,-4.107379318711109
5.7,-17.867958965513843,1.2859540266819685,-4.139921545290415
5.71,-17.83614203195158,1.3679243284878528,-4.186786415110565
5.72,-17.802307755372624,1.4362001897683028,-4.244693602417682
5.73,-17.767330962870524,1.4900905554701493,-4.310420460336129
5.74,-17.73197276373474,1.5296605098857667,-4.381009266469402
5.75,-17.696851353998497,1.5555580324601128,-4.453919654029968
5.76,-17.662431269282227,1.5688154638242204,-4.527116888231554
5.7700000000000005,-17.629029765288877,1.5706467271546858,-4.599093897391424
5.78,-17.59683803857685,1.562263432154043,-4.668831814964481
5.79,-17.56595378158575,1.5447235395275867,-4.735709187390116
5.8,-17.536420435052804,1.5188292562710761,-4.799373864864125
5.8100000000000005,-17.50826820134239,1.4850802192429033,-4.859595276709292
5.82,-17.481551989939028,1.4436839774864592,-4.916115288689802
5.83,-17.456381815318462,1.3946203891879108,-4.968515733927782
5.84,-17.432942202838856,1.3377480254262843,-5.016118707962768
5.8500000000000005,-17.411499201972887,1.2729420956897601,-5.05792747726604
5.86,-17.39239232841249,1.200247317194957,-5.092622137571674
5.87,-17.37601415852804,1.1200237279317926,-5.118604690998343
5.88,-17.362777802981345,1.033074795723676,-5.134095036858673
5.89,-17.35307633959953,0.9407374190712641,-5.137266894704801
5.9,-17.34723775799062,0.8449250380635882,-5.126411937698054
5.91,-17.3454796525287,0.748116052058849,-5.100117565422015
5.92,-17.347868419218717,0.6532857244048882,-5.057440374806276
5.93,-17.35416728790901,0.5637765647385546,-4.998030265451627
5.94,-17.364138989317755,0.4831500098983281,-4.92233255828501
5.95,-17.377285325490686,0.41496966129653723,-4.8315945489503855
5.96,-17.39287077151327,0.3625813274426969,-4.727885824827423
5.97,-17.409982017006755,0.32889402283404234,-4.614064096145772
5.98,-17.427566199329213,0.31617410829284975,-4.493675064198487
5.99,-17.444481184642157,0.32586952911731826,-4.370798765548637
6.0,-17.45955426855823,0.3584816713020054,-4.249852333543478
6.01,-17.471644590711,0.4134923403988241,-4.1353656567159085
6.0200000000000005,-17.47970608782248,0.48935241841546295,-4.031740651844412
6.03,-17.482845558413146,0.5835342396442386,-3.9430146938057407
6.04,-17.480372527429804,0.6926436226958927,-3.8726419200558073
6.05,-17.47183742269408,0.8125852103340822,-3.823307370179168
6.0600000000000005,-17.457055284444902,0.93876770593406,-3.7967878235449644
6.07,-17.43611429644354,1.0663371315285248,-3.7938648072840824
6.08,-17.409368441560677,1.190421809657718,-3.814296261688113
6.09,-17.377414986322375,1.3063736430839241,-3.856847717976346
6.1000000000000005,-17.341058712113966,1.4099859762300346,-3.919380182729239
6.11,-17.301267297966422,1.497686508106837,-3.9989778511576386
6.12,-17.259060540442977,1.5666701907324319,-4.092108845696229
6.13,-17.213395170181418,1.6148808972462754,-4.194279712240768
6.140000000000001,-17.16764375180612,1.6414433595176638,-4.301937242820049
6.15,-17.1228811739229,1.6462510805816821,-4.410947710703703
6.16,-17.080083337075923,1.6300423945933071,-4.517365130777273
6.17,-17.040090917323308,1.5943017552150665,-4.61759328511839
6.18,-17.00358393245773,1.5411289444141199,-4.708514628066878
6.19,-16.97106758520888,1.4730888158378432,-4.787579828345895
6.2,-16.94286907664379,1.393052778020328,-4.852856834138902
6.21,-16.919144489596487,1.3040431924793463,-4.903040328945444
6.22,-16.899894120033373,1.2090908280441417,-4.9374255037391315
6.23,-16.884984011327333,1.111113718935252,-4.955852883473196
6.24,-16.874171433507733,1.0128225392548404,-4.958631761377469
6.25,-16.867131865389428,0.9166560055133932,-4.946450867107114
6.26,-16.863484759940857,0.8247461364361834,-4.920286799561568
6.2700000000000005,-16.86281714928179,0.738910496457576,-4.881314595095729
6.28,-16.864701855596305,0.6606685309192969,-4.830833507078037
6.29,-16.868711383635855,0.5912730272113856,-4.7702060201211856
6.3,-16.87442590258325,0.5317526373677313,-4.7008171356880695
6.3100000000000005,-16.881435682582055,0.48295563951293874,-4.624054780517077
6.32,-16.889339337688735,0.4455937626683865,-4.541306494759753
6.33,-16.8978269758986,0.4202674768458887,-4.453997948078135
6.34,-16.906410283115413,0.4074811564099823,-4.363545262954905
6.3500000000000005,-16.914673585079083,0.4076408264247267,-4.27145033756054
6.36,-16.92218691384946,0.4210447788831527,-4.179307530245908
6.37,-16.928501145320553,0.44784074310082533,-4.088820175369086
6.38,-16.933149397087487,0.487982684080997,-4.001805205492386
6.390000000000001,-16.93565312038297,0.5411780574897106,-3.9201817979986417
6.4,-16.935533391385245,0.6068343699735108,-3.8459400770798986
6.41,-16.93232668099758,0.684011800307049,-3.781091106810455
6.42,-16.92560456765399,0.7713889211153395,-3.727598602372485
6.43,-16.91499575642356,0.8672452268633936,-3.687297834048945
6.44,-16.90020907299835,0.9694599529087069,-3.661807006768914
6.45,-16.8810568946039,1.0755473281898538,-3.65242847756861
6.46,-16.857474833417314,1.1827104654200735,-3.6600601617173467
6.47,-16.829537495815607,1.2879211816741036,-3.685116107227223
6.48,-16.79746867126323,1.3880209940677652,-3.7274636891783652
6.49,-16.761644577389,1.4798392729903642,-3.7863836798258363
6.5,-16.72258957141451,1.5603223526837695,-3.860556897142417
6.51,-16.680963978219026,1.626664594770716,-3.9480809018558167
6.5200000000000005,-16.63754466557799,1.676437195315632,-4.046515222671257
6.53,-16.59324425166191,1.70770598016527,-4.152970340645303
6.54,-16.548976290973343,1.7191226005307847,-4.264176144568338
6.55,-16.50565482406066,1.7099985332747156,-4.376616518701934
6.5600000000000005,-16.464213897045347,1.680352187080489,-4.486675652537135
6.57,-16.42553554274473,1.6309176351099324,-4.590772825569317
6.58,-16.390414219778453,1.563124555699217,-4.685504511791915
6.59,-16.359525385878072,1.47904092012125,-4.767779212023911
6.6000000000000005,-16.33339978901136,1.3812949972796182,-4.834934899837324
6.61,-16.31240310184795,1.2729710328917827,-4.884841894763404
6.62,-16.296724558716058,1.157482446644254,-4.9159762360052275
6.63,-16.286372670931463,1.0384374900495943,-4.927467358911676
6.640000000000001,-16.28117993771295,0.9194992843115513,-4.919112384605668
6.65,-16.28081306935217,0.8042496833742526,-4.891368089301766
6.66,-16.28479147307387,0.6960605144199596,-4.845309343957578
6.67,-16.292510118444522,0.5979805578673307,-4.782566910272058
6.68,-16.303266462822403,0.5126428466379758,-4.705244862407353
6.69,-16.316289550354995,0.442193315216008,-4.615824638157273
6.7,-16.330770034945502,0.38824407876058153,-4.517059821405299
6.71,-16.345889152429066,0.3518518424741322,-4.41186916362487
6.72,-16.360846090984747,0.3335184483983397,-4.303230661335099
6.73,-16.37488186936363,0.3332135641249949,-4.194084010004344
6.74,-16.38735897761001,0.35041782027004287,-4.087259502260444
6.75,-16.397609003386776,0.38416571417266304,-3.9853614125555796
6.76,-16.40509003816224,0.43311698018398154,-3.8907481912575568
6.7700000000000005,-16.409366812852422,0.49562223286435514,-3.805483773629905
6.78,-16.410102379391716,0.5697906599154017,-3.7313080865631125
6.79,-16.407057494275847,0.6535558820882066,-3.6696241736451816
6.8,-16.400087309742005,0.7447366865504992,-3.621496914755842
6.8100000000000005,-16.389136146444518,0.8410908117178184,-3.587660770584308
6.82,-16.374231014143746,0.9403608119063044,-3.568534208307616
6.83,-16.355475113028632,1.0403117836748392,-3.564236055103697
6.84,-16.333040817587555,1.1387629252082476,-3.574605322098682
6.8500000000000005,-16.307163306059895,1.233611003075115,-3.599220408491878
6.86,-16.27813592833484,1.322854145856557,-3.637411396898493
6.87,-16.246303974972616,1.404608477737545,-3.6882803915586306
6.88,-16.212061639612322,1.47712315192721,-3.7507097395673075
6.890000000000001,-16.175847890895884,1.5388078191184618,-3.823371504956447
6.9,-16.138142150284338,1.5882449454894587,-3.904741476639397
6.91,-16.09946044240092,1.6242182656214181,-3.993107352817087
6.92,-16.060349900745372,1.6457397462385663,-4.0865837344548925
6.93,-16.021381845367753,1.6520794873947715,-4.183131938586286
6.94,-15.983143325587369,1.6427954741830133,-4.280585793724612
6.95,-15.946275104695836,1.6177658047845949,-4.376697409276265
6.96,-15.911328092863657,1.577206546750734,-4.469144377495232
6.97,-15.878853174531384,1.5216981931246014,-4.555605535010024
6.98,-15.849379151555723,1.4521977046107242,-4.633815640069421
6.99,-15.823382921832494,1.3700383307040176,-4.7016229351593735
7.0,-15.801273228638426,1.2769198422612695,-4.757054117126977
7.01,-15.78337512740883,1.1748842004438578,-4.79838004766949
7.0200000000000005,-15.769915886175033,1.066277718928232,-4.824179011370322
7.03,-15.761013079699344,0.9536992448270415,-4.833394738965047
7.04,-15.756665642429365,0.8399355824498027,-4.825385945986012
7.05,-15.756748612010133,0.7278861031153188,-4.799964117863251
7.0600000000000005,-15.761011930783036,0.6204790575669327,-4.757417528983588
7.07,-15.769083620813822,0.5205824381043852,-4.698519616088872
7.08,-15.780477520340265,0.43091320112309905,-4.624520103790686
7.09,-15.794605309088151,0.35394892750171375,-4.53711898971164
7.1000000000000005,-15.810792567498433,0.2918446090260669,-4.43842373992106
7.11,-15.82829836979457,0.2463593180852091,-4.3308905437632985
7.12,-15.846337391804106,0.2187958198327008,-4.217252849954026
7.13,-15.864104129844248,0.20995473048756574,-4.10043836551408
7.140000000000001,-15.880797872430884,0.2201066502491017,-3.9834789891144955
7.15,-15.89564752151621,0.24898241659774714,-3.869417125500102
7.16,-15.907956037204702,0.2957833115728207,-3.7612165841330407
7.17,-15.917094856263503,0.35920658225183466,-3.661665305998216
7.18,-15.92248121419338,0.43748697417299187,-3.573280772002133
7.19,-15.923676689327884,0.5284606143151155,-3.4982581365382
7.2,-15.920364034827461,0.6296336489547967,-3.4384005522432184
7.21,-15.912354418641193,0.7382626496314715,-3.3950725629583847
7.22,-15.899590174882555,0.8514402716277981,-3.3691696318575035
7.23,-15.882143078715025,0.9661840083297432,-3.361104271629231
7.24,-15.860209199089983,1.0795217230615974,-3.370806101959685
7.25,-15.834099384073028,1.1885765035464593,-3.3977390045661666
7.26,-15.804227044174729,1.2906425048681938,-3.440930778500001
7.2700000000000005,-15.77109336215416,1.3832525590515492,-3.499014659093304
7.28,-15.735270772645126,1.4642349144399283,-3.5702800413709372
7.29,-15.697385335670027,1.5317583945700022,-3.6527301622120003
7.3,-15.658098675247933,1.584365320637522,-3.744144298768279
7.3100000000000005,-15.61809013436134,1.620992222913869,-3.8421419581989893
7.32,-15.578039662070502,1.6409789868126383,-3.9442469146229002
7.33,-15.538611817413132,1.6440671127274098,-4.047949454674855
7.34,-15.500441353788199,1.630388565261652,-4.150764688464061
7.3500000000000005,-15.464120466325616,1.600446578189969,-4.250286294926822
7.36,-15.430187919851353,1.5550895987645017,-4.34423459066716
7.37,-15.399120023898767,1.4954803128961434,-4.430498592197862
7.38,-15.371354464006966,1.423062574426874,-4.507179890820538
7.390000000000001,-15.347209459311966,1.3395194182213292,-4.572602973104814
7.4,-15.326919685221117,1.2467363562267455,-4.625349639959023
7.41,-15.310656241726445,1.146762789248611,-4.664283597712237
7.42,-15.29850755803702,1.0417706534637623,-4.688559806527665
7.43,-15.290479322870375,0.9340141586758189,-4.697634073837813
7.44,-15.286495448816426,0.8257896751401983,-4.691268615733554
7.45,-15.286400049452775,0.7193961342662979,-4.669533590710787
7.46,-15.28996016192443,0.6170955552325594,-4.632805708809937
7.47,-15.2968695654312,0.5210709815891574,-4.581763172884865
7.48,-15.306754183537654,0.4333906184158798,-4.517373177878751
7.49,-15.319177225149732,0.35596954848833584,-4.440880862518693
7.5,-15.333646644087795,0.2905280858998269,-4.353790071969418
7.51,-15.349623471605032,0.2385588886259115,-4.257838821794358
7.5200000000000005,-15.36653059409823,0.20129328122468482,-4.154973152302451
7.53,-15.383763894342941,0.17966776910194632,-4.0473117812706185
7.54,-15.400703509366776,0.17429871513798173,-3.9371084723537217
7.55,-15.41672652586249,0.18545964108518864,-3.8267082008036097
7.5600000000000005,-15.431220442834157,0.213065325784981,-3.7184987854349867
7.57,-15.443596912315032,0.25666364526406704,-3.6148596649477227
7.58,-15.45330579840797,0.31543488072479053,-3.5181076977886327
7.59,-15.45984893176112,0.38820039718382404,-3.4304419791254515
7.6000000000000005,-15.462817573005546,0.473441936199995,-3.353895215453638
7.61,-15.461850196294282,0.5693256161347262,-3.2902671736105553
7.62,-15.456659561620805,0.6737395107385601,-3.2410790017381426
7.63,-15.447073724430972,0.7843410259553035,-3.207538215814559
7.640000000000001,-15.43302334508944,0.8986085895868205,-3.190497115288747
7.65,-15.414545567441724,1.0139014569402336,-3.190423916793859
7.66,-15.391784925339687,1.1275239712163256,-3.207384372449015
7.67,-15.36499133822679,1.2367937148505916,-3.2410337223224186
7.68,-15.334515344171923,1.3391090399418133,-3.2906194784048837
7.69,-15.30079947266408,1.432019939937236,-3.354998355728429
7.7,-15.264369016038385,1.5132861391747006,-3.4326585039211523
7.71,-15.22581841083904,1.5809411139890073,-3.5217572970051005
7.72,-15.185796414217322,1.6333428199134452,-3.6201668972700825
7.73,-15.144989611921899,1.669216880562047,-3.7255280035712333
7.74,-15.104104833372045,1.6876896154929681,-3.835310180992044
7.75,-15.063851097033938,1.688309942216363,-3.946876584407979
7.76,-15.024921444536231,1.6710597356338546,-4.057551783652575
7.7700000000000005,-14.987975488934403,1.6363521720208698,-4.164689614241128
7.78,-14.953622777285595,1.5850176790701898,-4.2657407565759495
7.79,-14.92240839431644,1.518280089640105,-4.358313920271696
7.8,-14.894799703429385,1.4377224021850459,-4.440235024384154
7.8100000000000005,-14.87117567167585,1.34524219895296,-4.509598805308919
7.82,-14.851825041943764,1.2430024031839526,-4.564812077772945
7.83,-14.83695513338941,1.1333749080810267,-4.6046325515977715
7.84,-14.82660980833872,1.0188757783081135,-4.628172226844283
7.8500000000000005,-14.82076104190447,0.9021079307929329,-4.634935736355741
7.86,-14.819278981833838,0.7856965253364202,-4.624816204569003
7.87,-14.821936953032324,0.6722276607987597,-4.598090109246905
7.88,-14.828418624621676,0.56418981407761,-4.555403149319767
7.890000000000001,-14.838327062182826,0.4639194695436149,-4.497747850778168
7.9,-14.8511952939976,0.3735525209863176,-4.426433986770171
7.91,-14.866498171954225,0.2949805437091927,-4.343052842541106
7.92,-14.8836650322929,0.22981675931707288,-4.249436192779821
7.930000000000001,-14.902092837483941,0.17936682960157296,-4.147612250072902
7.94,-14.921159569445292,0.14460806268159587,-4.039758712470748
7.95,-14.94023755153699,0.12617594058341725,-3.9281543857913945
7.96,-14.958706383538724,0.12435816903649943,-3.815130562718522
7.97,-14.97596530153225,0.13909565434444604,-3.7030230190981963
7.98,-14.991444763372064,0.16998995417847473,-3.5941255013973925
7.99,-15.004617258862325,0.21631662629114906,-3.490644833189033
8.0,-15.015006580328468,0.27704505623046194,-3.3946605120146955
8.01,-15.022196731746492,0.3508617643760427,-3.30808482745611
8.02,-15.025838652545692,0.43619970902340144,-3.232630120034071
8.03,-15.025656358701475,0.5312700696859205,-3.169777653978549
8.040000000000001,-15.021451463248923,0.63409783797694,-3.120751900193853
8.05,-15.013119728953445,0.7425609143836509,-3.086502429197078
8.06,-15.000631535647566,0.8544292573301142,-3.0676820796392152
8.07,-14.984016511464059,0.9674059765112056,-3.0646313760509187
8.08,-14.963405095150142,1.079172993324414,-3.0773832460544845
8.09,-14.93900753537886,1.187433530791501,-3.10565718184853
8.1,-14.911110151279336,1.289955626376658,-3.1488636109656754
8.11,-14.88007023134126,1.384614890462743,-3.206113706094497
8.120000000000001,-14.846309618718214,1.4694359075112007,-3.276234586100693
8.13,-14.810307031517661,1.5426315375410047,-3.3577898939361766
8.14,-14.772589223664657,1.6026392166744725,-3.449105555358821
8.15,-14.733721072513912,1.6481540506140724,-3.548300421871568
8.16,-14.694294775828876,1.6781572237643043,-3.65332145024577
8.17,-14.654918296663991,1.6919396862395726,-3.761982878117683
8.18,-14.61628006647938,1.6892462743897927,-3.8716826869424095
8.19,-14.579301907694562,1.6710149082502572,-3.978679779561621
8.2,-14.544596450835462,1.6390596980114243,-4.0801630527242665
8.21,-14.51191142498533,1.5925672348944901,-4.177279056635428
8.22,-14.48170419471838,1.5321719537117042,-4.268113285804038
8.23,-14.454401562407853,1.4587739655374188,-4.350807798513903
8.24,-14.43039004025677,1.3735386551446123,-4.423598896280917
8.25,-14.41000649195865,1.2778908290565585,-4.4848546655332076
8.26,-14.393528499597284,1.1735025608142777,-4.533115018003277
8.27,-14.381165188123001,1.0622730733928814,-4.567131814232119
8.28,-14.373084672087836,0.946303421796411,-4.585916268614149
8.290000000000001,-14.36935857796182,0.8278581166858772,-4.5887622667569055
8.3,-14.369887211415797,0.7093183641432773,-4.575258955843513
8.31,-14.374537318008908,0.5931409054278556,-4.545352328103236
8.32,-14.383081935637628,0.48179952745751176,-4.49934659243943
8.33,-14.395201887531917,0.37772613913035796,-4.437912068235981
8.34,-14.410489976352961,0.28324955683424674,-4.362083152527655
8.35,-14.428457917654434,0.20053408590706373,-4.273245748601079
8.36,-14.448545919107032,0.13151995007605577,-4.173114038517175
8.370000000000001,-14.470134723212551,0.07786780136111904,-4.063696789793589
8.38,-14.492559803309163,0.040909265203748046,-3.9472539394653867
8.39,-14.51512725038636,0.021605446954578222,-3.8262447958552315
8.4,-14.537131032773594,0.0205150836066193,-3.703268702412237
8.41,-14.55787084398398,0.03777369783329393,-3.581000880456465
8.42,-14.576670229109414,0.0730843043976307,-3.462124511793759
8.43,-14.592894221872715,0.1257207604243706,-3.3492617909502407
8.44,-14.605965849308697,0.19454307352205752,-3.2449065833679844
8.45,-14.615381300902074,0.2780250220751617,-3.151359390471356
8.46,-14.620722822852684,0.37429242597331147,-3.070668645201778
8.47,-14.621669253346553,0.48117127049698716,-3.0045788422880806
8.48,-14.618003783911377,0.5962438885122116,-2.954487523685907
8.49,-14.609618742767466,0.7169115926576356,-2.921412282039652
8.5,-14.596517279984363,0.8404612606446048,-2.905968825664681
8.51,-14.57881359187738,0.9641343592028481,-2.9083607098244553
8.52,-14.5567496045809,1.0851966502480312,-2.928385604007807
8.53,-14.530615248231895,1.2010005059450628,-2.965428310819533
8.540000000000001,-14.500814972514686,1.3090517162639705,-3.0185025913411647
8.55,-14.467830289947834,1.407064614847465,-3.086276014009099
8.56,-14.432206617315831,1.4930113244415786,-3.1671094188129283
8.57,-14.394538941215814,1.5651627372121195,-3.2591028365498222
8.58,-14.35545674203842,1.6221204245344767,-3.3601463781543424
8.59,-14.31560871252335,1.6628389216396744,-3.467974147101648
8.6,-14.27564768475512,1.6866384791347215,-3.580219553250628
8.61,-14.23621610725974,1.693208499016714,-3.694470658566605
8.620000000000001,-14.197932520537957,1.682601933730921,-3.8083237610677196
8.63,-14.161379266248238,1.655221905184443,-3.9194340037785027
8.64,-14.127091640841195,1.6118010376593848,-4.0255620924809365
8.65,-14.095548720567942,1.5533748006828496,-4.124615940436407
8.66,-14.067165860927696,1.481249954219043,-4.2146869738332615
8.67,-14.042288963646282,1.3969693710413504,-4.294080442994014
8.68,-14.021190439825086,1.3022743168222755,-4.361339765261091
8.69,-14.004066798816462,1.1990652099755914,-4.415264934762109
8.700000000000001,-13.991037804997985,1.0893618200375008,-4.454925005637818
8.71,-13.982146956877619,0.9752639639943925,-4.479665340872253
8.72,-13.97736322916254,0.8589130487561569,-4.489109787977631
8.73,-13.976583857835566,0.7424552396241622,-4.483158442985349
8.74,-13.979638057144431,0.6280065676851796,-4.461981366596984
8.75,-13.98630169547274,0.5176207586892998,-4.426011753312198
8.76,-13.99628584092604,0.4132576185605211,-4.375928965726236
8.77,-14.009230455246849,0.31675458179235677,-4.312640022265035
8.78,-14.024742983473947,0.2298033112630232,-4.237270697278066
8.790000000000001,-14.042390443136386,0.15392410668169518,-4.151142731800796
8.8,-14.061706350941753,0.09044686639293736,-4.055751529959052
8.81,-14.082197561559138,0.040491368452167165,-3.9527442391020724
8.82,-14.103351700714875,0.004951371253442471,-3.843894715832949
8.83,-14.124644703167297,-0.015519167975172665,-3.7310775746240115
8.84,-14.14554866122644,-0.02051747926694364,-3.616240477050505
8.85,-14.165539784628029,-0.00990012645502708,-3.5013752529826534
8.86,-14.184106636053901,0.016211463052207442,-3.3884873348284104
8.870000000000001,-14.200758259995657,0.057429182941698964,-3.2795647608407315
8.88,-14.215032953794426,0.1131001569508383,-3.176543791719973
8.89,-14.226505530714231,0.18231301592458715,-3.0812794384485924
8.9,-14.234795722700612,0.2639073179275033,-2.9955107505800123
8.91,-14.239575576015548,0.3564881589482042,-2.9208288465984227
8.92,-14.240576381083613,0.45844554685368133,-2.85864563449055
8.93,-14.237594791079577,0.5679782115006937,-2.8101646427574547
8.94,-14.2304980378714,0.6831219737871498,-2.7763542815715327
8.950000000000001,-14.219228005932747,0.8017823536893798,-2.757924539086603
8.96,-14.203804038403524,0.9217710798758639,-2.755307672019592
8.97,-14.184324270697841,1.0408457107484164,-2.7686438736539816
8.98,-14.160965465578448,1.1567520108595402,-2.797772088006808
8.99,-14.13399119020244,1.2672686423114923,-2.842229578967281
9.0,-14.103729985082321,1.3702506247819635,-2.9012504488033906
9.01,-14.070564843924792,1.4636735497232751,-2.9737738802976104
9.02,-14.034951889242063,1.5456784137259962,-3.058467204525826
9.03,-13.99740017008556,1.6146112074435628,-3.1537456325852125
9.040000000000001,-13.958462068328027,1.6690599717798675,-3.2578007526238117
9.05,-13.918722370216065,1.707887335271231,-3.3686352407558773
9.06,-13.878786588200274,1.7302571903286394,-3.4841018291139103
9.07,-13.839268494287989,1.7356554946954423,-3.601946674249586
9.08,-13.800777394912881,1.7239037048120447,-3.719855442356224
9.09,-13.76390532169574,1.695165004796007,-3.8355013833585994
9.1,-13.729214551339517,1.6499428497630753,-3.9465939165920307
9.11,-13.697225636194137,1.589071901855787,-4.050927000306167
9.120000000000001,-13.66840637510573,1.513701324444066,-4.146425641411806
9.13,-13.64316198954914,1.4252711934881848,-4.231189340207274
9.14,-13.621826605538688,1.32548216763777,-4.303532045913212
9.15,-13.604656437285247,1.216259517456566,-4.362016844908597
9.16,-13.591824709303946,1.099712396980165,-4.405485028844586
9.17,-13.583418439862337,0.9780891928906444,-4.433078875863042
9.18,-13.579437169344567,0.8537302763448481,-4.4442575160472995
9.19,-13.579793612269953,0.7290192368383186,-4.438805711711483
9.200000000000001,-13.584316191812677,0.6063337847783921,-4.416835437256078
9.21,-13.592753358972082,0.48799751048772266,-4.378780361650161
9.22,-13.604779553048795,0.3762335963012088,-4.325383533501736
9.23,-13.62000618692173,0.2731217039193254,-4.257679640362379
9.24,-13.637995727050475,0.18055885956405732,-4.17697199966781
9.25,-13.658233735845164,0.10022239785957204,-4.084793389683965
9.26,-13.680184203918184,0.03354315023532595,-3.9828840231700755
9.27,-13.703284364068553,-0.018319291526752268,-3.873150414848763
9.28,-13.726955931166403,-0.05449429058895533,-3.757626032016891
9.290000000000001,-13.750616350166432,-0.07441168376330437,-3.638430483735954
9.3,-13.77368981639353,-0.07780711952299468,-3.5177281581588713
9.31,-13.795617854078655,-0.0647213594518461,-3.397687167364296
9.32,-13.815869249954707,-0.03549382915263527,-3.2804394534447465
9.33,-13.83394918408296,0.009249187801922909,-3.168042756422454
9.34,-13.849407425345076,0.06861126377063154,-3.0624450607832383
9.35,-13.861845460658431,0.1414468517916872,-2.965452164756381
9.36,-13.870922509761138,0.2263860879855487,-2.8786986819955795
9.370000000000001,-13.87636032449472,0.32186262991909625,-2.8036230401471594
9.38,-13.87794683128934,0.426144077485025,-2.741446350332939
9.39,-13.875538559766472,0.5373642690421035,-2.6931555324723147
9.4,-13.86906180199701,0.6535566544214338,-2.659491108739889
9.41,-13.858512749795757,0.7726885857456641,-2.6409387186636044
9.42,-13.84395642330501,0.8926954567820626,-2.637725356905868
9.43,-13.825524638363968,1.011514631380372,-2.6498193662176894
9.44,-13.803412992601233,1.1271185764304616,-2.676934409280954
9.450000000000001,-13.777876961549515,1.2375466372292143,-2.718537198127763
9.46,-13.749227197242874,1.3409352705900734,-2.7738586633758775
9.47,-13.717824109861098,1.4355464894865566,-2.841908304274474
9.48,-13.684082183076667,1.5197944879950085,-2.9214942935160955
9.49,-13.648439526318882,1.5922676045818849,-3.011237174125723
9.5,-13.611360061002143,1.6517505494857878,-3.109594951585672
9.51,-13.573337589919221,1.6972423901310463,-3.214890736322179
9.52,-13.53488089025704,1.727970927775498,-3.3253367619699734
9.53,-13.49650569129707,1.7434047190681712,-3.439062606288577
9.540000000000001,-13.45872674884448,1.7432611467207597,-3.5541439623295936
9.55,-13.422049521282789,1.7275114291513258,-3.668633636157104
9.56,-13.386962639373154,1.6963808285212127,-3.780590639504969
9.57,-13.353929991886137,1.6503465203258159,-3.8881112565026035
9.58,-13.32338328930825,1.5901311023349578,-3.989359294559592
9.59,-13.295715000697886,1.5166923616910717,-4.082595756257268
9.6,-13.271271838299569,1.4312092426439398,-4.16620727695505
9.61,-13.250348919341205,1.3350644599721646,-4.238732724073335
9.620000000000001,-13.233184548289547,1.2298234773354564,-4.298888233019204
9.63,-13.219955891965109,1.1172103559130244,-4.345589521281964
9.64,-13.210775566283527,0.9990806584151393,-4.377971360176678
9.65,-13.205689222807893,0.8773917578219323,-4.3954037821156975
9.66,-13.204674235466493,0.7541711905085078,-4.397504493353241
9.67,-13.207639444778724,0.6314829181995181,-4.384147670847653
9.68,-13.214426149219882,0.5113929156678109,-4.35546810882814
9.69,-13.224810220057961,0.3959339467405384,-4.311861201792942
9.700000000000001,-13.238505400292595,0.28707049131277923,-4.253978318065438
9.71,-13.255167733805056,0.1866644019582645,-4.182717635464656
9.72,-13.274401075611246,0.09644186795870768,-4.099210493728
9.73,-13.29587004084688,0.017968823576092197,-4.004830933188175
9.74,-13.31903769849,-0.04739351307662043,-3.901103948973367
9.75,-13.343343528560624,-0.09850373869022783,-3.789723573645229
9.76,-13.36825600677005,-0.13445891090013962,-3.6725351716464325
9.77,-13.393231560252376,-0.15461473392479225,-3.55149059421299
9.78,-13.417724091370138,-0.15859805826436707,-3.4286142633506365
9.790000000000001,-13.44119467595875,-0.1463146254724596,-3.3059674731839954
9.8,-13.463121121224736,-0.1179515459380886,-3.1856120192167316
9.81,-13.48300727565039,-0.07397466494301264,-3.0695735994989066
9.82,-13.500391853488633,-0.0151207959463881,-2.959805905106271
9.83,-13.514856717756107,0.057615097302723156,-2.8581556283108913
9.84,-13.52603427576795,0.1429975082079577,-2.7663297981790254
9.85,-13.53361398937776,0.23957242781865482,-2.685865507658258
9.86,-13.537347793050836,0.34569330112981944,-2.618102957589225
9.870000000000001,-13.537054391503762,0.459550613706159,-2.5641619875205737
9.88,-13.532622270151894,0.5792042533987807,-2.5249229427754107
9.89,-13.52401142797533,0.7026181167594687,-2.5010119589799307
9.9,-13.511253808594212,0.8276962399871631,-2.4927909238160533
9.91,-13.4944524121003,0.952319862150364,-2.5003523234261715
9.92,-13.473779010041309,1.0743848805018066,-2.5235194097585545
9.93,-13.449470878994704,1.1918376280901906,-2.561850528763376
9.94,-13.421826284325647,1.302710608500377,-2.614648292713259
9.950000000000001,-13.391198669002426,1.4051561088374165,-2.68097428202088
9.96,-13.357990459957431,1.4974763295822082,-2.7596659835150255
9.97,-13.322645621957088,1.5781517159920522,-2.8493590232461026
9.98,-13.285661049323295,1.6458663584493478,-2.9485169778157765
9.99,-13.247542555744438,1.6995262876947308,-3.0554498736945495
10.0,-13.208787241333308,1.7382752812856148,-3.168341712414859
10.01,-13.16992228607307,1.7615097088684615,-3.2852942616420835
10.02,-13.13147375018134,1.768884709043725,-3.404353673632901
10.03,-13.093957878921799,1.7603172793732593,-3.523543381261608
10.040000000000001,-13.057872703893713,1.7359849083181613,-3.6408968828464583
10.05,-13.023690110967678,1.6963198813530527,-3.754489725218157
10.06,-12.991848470735267,1.6419995828263967,-3.862470238291576
10.07,-12.962745924749019,1.5739329666639552,-3.9630886228449484
10.08,-12.936734428991063,1.493243488900786,-4.054723931319952
10.09,-12.914114647139643,1.4012489595295021,-4.135908476761103
10.1,-12.895131725190637,1.2994385962832953,-4.205349482804247
10.11,-12.879972023932707,1.1894478495597025,-4.261947547730615
10.120000000000001,-12.868760811594155,1.073031432485271,-4.304811813061114
10.13,-12.861560905599445,0.952034743907344,-4.333271832958322
10.14,-12.858372322094603,0.828364544895887,-4.346885724102849
10.15,-12.859132857758599,0.7039591600922539,-4.345444820313236
10.16,-12.863719592129135,0.5807584977592722,-4.328974809489189
10.17,-12.871951277832663,0.4606745823892338,-4.297733321190283
10.18,-12.883591554141919,0.345562845104608,-4.252204155147705
10.19,-12.898352929439518,0.23719458329516294,-4.1930882663844296
10.200000000000001,-12.915901455900501,0.1372310048006372,-4.12129170766235
10.21,-12.935862041513827,0.04719903328354161,-4.037910698514121
10.22,-12.95782427341297,-0.03153049251977724,-3.9442141675476976
10.23,-12.981348725349738,-0.09776245520933852,-3.8416239162068986
10.24,-13.00598908526879,-0.15049335385371831,-3.731696785386844
10.25,-13.031253514139726,-0.18892803978306338,-3.6160892996487353
10.26,-13.056655586693434,-0.2124880437088632,-3.4965440718990037
10.27,-13.081708673128032,-0.22082020151103027,-3.374860458080324
10.28,-13.105932210208781,-0.21380129028032402,-3.252867639434701
10.290000000000001,-13.128858778165261,-0.19153934832894093,-3.13239756936642
10.3,-13.150040973425865,-0.15437169286616137,-3.0152579456840876
10.31,-13.169057986220558,-0.10285967028383963,-2.903205566790859
10.32,-13.18552179741784,-0.03778020572423141,-2.7979204180224566
10.33,-13.19908288983847,0.03988570539590336,-2.7009809275931773
10.34,-13.209435447557755,0.12896742262973487,-2.613840522231256
10.35,-13.21632197596159,0.2281223219048982,-2.5378056719307818
10.36,-13.219536993624988,0.33585521200381063,-2.4740171351997766
10.370000000000001,-13.218930268795745,0.4505401513628958,-2.4234323763452794
10.38,-13.214409160298178,0.5704454979078349,-2.3868107117974784
10.39,-13.205939971499465,0.6937584766484648,-2.364702398893082
10.4,-13.193548658763497,0.8186126456351265,-2.357439520601561
10.41,-13.177320544331383,0.9431157515643835,-2.365130643524779
10.42,-13.15739914851081,1.065378197520881,-2.3876587359452257
10.43,-13.133984148723465,1.1835414128704302,-2.4246824863007075
10.44,-13.107328510556563,1.295805910765229,-2.4756408924097113
10.450000000000001,-13.077734776422593,1.400458826395937,-2.5397612235720355
10.46,-13.045550420281492,1.4959004515305236,-2.6160708347838595
10.47,-13.01116292139294,1.5806676466878304,-2.7034107906903118
10.48,-12.974993809510671,1.6534571736028336,-2.8004534709501123
10.49,-12.93749424238666,1.7131458142420106,-2.9057228927356875
10.5,-12.899145569992479,1.7588082517395514,-3.0176189719306743
10.51,-12.860418518537681,1.7897294847994845,-3.134433088681374
10.52,-12.821803356853442,1.8054182667470395,-3.2543837429540647
10.53,-12.783789213200338,1.805614094558934,-3.375640376143574
10.540000000000001,-12.74685658972808,1.7902913623068688,-3.4963513470370406
10.55,-12.711469994168798,1.7596598877394798,-3.614672293155413
10.56,-12.678070799144894,1.714161770443205,-3.7287944623445646
10.57,-12.647070494025119,1.6544646406430885,-3.8369723638261477
10.58,-12.618844353896563,1.5814513973999884,-3.9375506170862864
10.59,-12.593725684132089,1.496206200481255,-4.028989451944649
10.6,-12.572000840356095,1.399997849678234,-4.109887813189045
10.61,-12.553904851734512,1.294260413910192,-4.179004757700418
10.620000000000001,-12.539617901934196,1.180570714624941,-4.235278282754158
10.63,-12.5292626779867,1.0606239710044396,-4.277841215389956
10.64,-12.522902631119512,0.9362077582342877,-4.3060339695746
10.65,-12.52054115961237,0.8091743758704883,-4.319414107498913
10.66,-12.522121736147275,0.6814125585986631,-4.317762402579173
10.67,-12.527528957914226,0.5548186155054673,-4.301085466724485
10.68,-12.536590505966895,0.4312676675218078,-4.269614840816292
10.69,-12.549079970266273,0.31258535871823523,-4.2238026285817
10.700000000000001,-12.564720492840047,0.2005204844146619,-4.164313755248397
10.71,-12.583189155140365,0.09671903870528098,-4.092015021318768
10.72,-12.60412204859542,0.0026999278573339724,-4.007961127918774
10.73,-12.627119926731526,-0.08016712174123813,-3.913377946869294
10.74,-12.651754348900154,-0.15068123756837493,-3.8096433294947816
10.75,-12.677574374535306,-0.2078273514383827,-3.698265809668891
10.76,-12.704126574222732,-0.2507894207449513,-3.580864891440302
10.77,-12.730921453300564,-0.27896375551422253,-3.459136024633489
10.78,-12.75748146774876,-0.29196419742143703,-3.3348356533574677
10.790000000000001,-12.783334326473343,-0.2896272654620789,-3.209751510665847
10.8,-12.808019870641502,-0.2720131393547692,-3.085676254091887
10.81,-12.831096705540993,-0.23940333857681617,-2.9643812913128063
10.82,-12.852148491410128,-0.19229518149224584,-2.8475911781553997
10.83,-12.87078980315231,-0.1313931537580902,-2.736958967112268
10.84,-12.886671481861583,-0.057597361000032654,-2.6340428447460216
10.85,-12.899485406680947,0.0280107213974663,-2.5402843836343587
10.86,-12.90896862745176,0.12418495418832128,-2.4569886963290597
10.870000000000001,-12.914906808793797,0.229533416246094,-2.3853067469640266
10.88,-12.917136947199435,0.34253916046917066,-2.3262200388375245
10.89,-12.915549334221742,0.4615825214045295,-2.280527856920815
10.9,-12.910088749591912,0.5849646374465926,-2.248837205757969
10.91,-12.900754879735079,0.7109318404740432,-2.2315555407134853
10.92,-12.88760196712404,0.8377005641033654,-2.228886352391581
10.93,-12.870737707130818,0.9634824197541609,-2.240827621101073
10.94,-12.850321417910733,1.0865090966179558,-2.2671731223053952
10.950000000000001,-12.826561518690689,1.2050567504110263,-2.3075165239949773
10.96,-12.799712359761138,1.317469560082492,-2.3612581829178287
10.97,-12.770070454911881,1.4221821485416068,-2.4276145139598193
10.98,-12.73797017398503,1.5177405860960174,-2.505629774832073
10.99,-12.703778958288586,1.6028217146857684,-2.59419008423751
11.0,-12.667892139603408,1.6762505132914525,-2.692039427106794
11.01,-12.630727401123751,1.7370154457840419,-2.7977975095343344
11.02,-12.5927266795367,1.784281875335998,-2.909981087037437
11.03,-12.55433219926216,1.81740152029173,-3.0270199275232037
11.040000000000001,-12.515988257398506,1.8359209127635352,-3.147280461985141
11.05,-12.478142693090732,1.8395871928940841,-3.2690900554640807
11.06,-12.441235749958368,1.8283504545909142,-3.390758414178136
11.07,-12.405694170901006,1.802363694251805,-3.5106004246996907
11.08,-12.371925500178367,1.7619800749852055,-3.626958813788898
11.09,-12.340312664812815,1.7077475534224227,-3.7382263396413817
11.1,-12.3112089024028,1.6404009546902363,-3.842867234851542
11.11,-12.284933123581332,1.5608516389124023,-3.93943752948035
11.120000000000001,-12.26176568349882,1.4701748096640885,-4.026604334043175
11.13,-12.241944742256845,1.369594756168367,-4.103163330095219
11.14,-12.225663162072252,1.260468157691461,-4.1680546326395715
11.15,-12.213066004974653,1.1442656448922048,-4.220376733938996
11.16,-12.204248688997321,1.022551977701612,-4.259398225117543
11.17,-12.19925577956269,0.8969649160159078,-4.284567361804707
11.18,-12.198080473447256,0.769193215583158,-4.295519157187001
11.19,-12.200664761861368,0.6409540174231627,-4.292079990886915
11.200000000000001,-12.206900266171093,0.5139698013861191,-4.274269716425483
11.21,-12.21662974484406,0.3899454500279783,-4.242301151931066
11.22,-12.229649247429219,0.2705453364455797,-4.196577058912504
11.23,-12.245710888556317,0.15737119901306912,-4.13768454679311
11.24,-12.264526202874347,0.05194076559604224,-4.066387055878247
11.25,-12.285770038553093,-0.0443324702287054,-3.983613991774209
11.26,-12.309084945447754,-0.13015810482448642,-3.8904481296799536
11.27,-12.334085969896332,-0.20438588831255183,-3.7881110347987503
11.28,-12.360365838846969,-0.266021066373389,-3.677946574779002
11.290000000000001,-12.387511002611385,-0.3142368814912021,-3.5614055870388133
11.3,-12.415076716092102,-0.3483873216690946,-3.440018490008587
11.31,-12.442621163488457,-0.3680138937695383,-3.3153820215825505
11.32,-12.469704276370653,-0.37285199712118106,-3.1891359821658245
11.33,-12.495892433513028,-0.3628343263549902,-3.0629409572674913
11.34,-12.520764250752075,-0.3380915485782387,-2.9384560926844867
11.35,-12.543916197924569,-0.29895031672620564,-2.817316920996377
11.36,-12.564967966639426,-0.24592864940518017,-2.7011135411190006
11.370000000000001,-12.583567516937796,-0.17972874439894154,-2.59136944452661
11.38,-12.599395735285546,-0.101227320862808,-2.4895212712763963
11.39,-12.612170627106842,-0.01146365558212692,-2.3968998324284208
11.4,-12.621651025988076,0.08837456939653975,-2.314712490995361
11.41,-12.62763972340596,0.19696737121423724,-2.244027332990282
11.42,-12.629986004072451,0.31288030326465033,-2.1857592341139855
11.43,-12.628587541459387,0.43458369805543207,-2.140658075776247
11.44,-12.623391668545198,0.5604733386319916,-2.1092990400688567
11.450000000000001,-12.614395938507819,0.6888918367153518,-2.0920754920955424
11.46,-12.601648032985441,0.8181507345437372,-2.089194213744438
11.47,-12.58524499619039,0.9465529827883115,-2.1006731557618257
11.48,-12.565331818216231,1.0724153065698352,-2.1263417330443914
11.49,-12.542099365147681,1.194090507802395,-2.165843659138631
11.5,-12.515781750245198,1.3099889152815645,-2.2186421368701548
11.51,-12.486653002391815,1.4185994807958648,-2.2840278563528393
11.52,-12.45502349155809,1.5185087050743182,-2.3611284221014386
11.53,-12.421235639947664,1.6084192815042782,-2.4489206143487467
11.540000000000001,-12.38565936291464,1.6871665377411624,-2.546244201765014
11.55,-12.348687142782069,1.7537329897746994,-2.6518176236193587
11.56,-12.3107384627437,1.8072624793713494,-2.7642585045446313
11.57,-12.272226127795475,1.8470675023211485,-2.882093263492409
11.58,-12.233577240206957,1.8726399590744653,-3.003784344956546
11.59,-12.195220748318437,1.883656434686582,-3.127748410632206
11.6,-12.157490164686303,1.8805287648164155,-3.2526006545267205
11.61,-12.12066992419946,1.8637029129797464,-3.3771701171612056
11.620000000000001,-12.084897773249319,1.8339633766234076,-3.500713917725875
11.63,-12.050909708807575,1.7896408222929971,-3.6207699873722885
11.64,-12.019097860157592,1.731225878022383,-3.735710297473592
11.65,-11.989827242179416,1.6594055166855504,-3.8439659573292895
11.66,-11.963431021010464,1.575053463344427,-3.9440479430913813
11.67,-11.940205184527,1.479218765423825,-4.034570328733555
11.68,-11.920404099432002,1.3731141907044062,-4.114270076036093
11.69,-11.904236502090118,1.2580982438649893,-4.182026733558139
11.700000000000001,-11.891862286583804,1.1356568455794607,-4.236879081475004
11.71,-11.883390002843981,1.0073822877850185,-4.278039676623922
11.72,-11.87887513938818,0.8749506632405536,-4.304906713802177
11.73,-11.87831922468059,0.7400978698411893,-4.317073055182928
11.74,-11.881669761229336,0.6045946114004271,-4.314332272070854
11.75,-11.88882100039465,0.47022093454747615,-4.296681546135494
11.76,-11.899615534559146,0.33874064487274747,-4.264321438613316
11.77,-11.913846682627215,0.21187604544286662,-4.217652518555285
11.78,-11.931261613699935,0.09128349107163336,-4.157268949409975
11.790000000000001,-11.95156517010427,-0.021469980723527404,-4.0839491225982005
11.8,-11.974424268700634,-0.12492830537248556,-3.99864365976936
11.81,-11.999472907052471,-0.21776647206590896,-3.9024607107676186
11.82,-12.02631753927863,-0.29880807601961107,-3.796649239198272
11.83,-12.054549664980389,-0.3670401754412667,-3.68258201246536
11.84,-12.083734669211973,-0.42162693659250905,-3.5617309092928737
11.85,-12.113428495158406,-0.4619188546745888,-3.435648143400502
11.86,-12.143187001414974,-0.4874593594038664,-3.3059446888002006
11.870000000000001,-12.172568762569531,-0.497989044514555,-3.17426661308593
11.88,-12.201141050877313,-0.4934466189247046,-3.0422721807862607
11.89,-12.228485564579293,-0.47396704204129736,-2.911609281139555
11.9,-12.254203884722422,-0.4398769762085665,-2.7838932762628015
11.91,-12.27792247807333,-0.39168746293785134,-2.6606859729365437
11.92,-12.299297250457128,-0.33008424171340517,-2.5434757824652316
11.93,-12.318017588514087,-0.25591590460721875,-2.4336593543704534
11.94,-12.333809843209297,-0.1701800445920303,-2.332524906162626
11.950000000000001,-12.346440209355462,-0.07400780475512311,-2.241237515871644
11.96,-12.35571700591245,0.03135302380518423,-2.1608263962900525
11.97,-12.361492327988136,0.14455596918501862,-2.0921743510136563
11.98,-12.363663079537124,0.26417463090598126,-2.0360094425325546
11.99,-12.362171397627696,0.3887219326864423,-1.9928988965612786
12.0,-12.357004485678594,0.5166696086883704,-1.9632452376164626
12.01,-12.348193887534105,0.6464675853694823,-1.947284609239818
12.02,-12.335814229344832,0.7765631086293446,-1.9450872122194522
12.030000000000001,-12.319981478790012,0.9054192725714335,-1.9565597456980948
12.040000000000001,-12.30085076223382,1.0315328034098843,-1.9814497299000773
12.05,-12.278613785794038,1.153450898854716,-2.0193515798810213
12.06,-12.253495908826142,1.2697869980728613,-2.069714269720884
12.07,-12.22575293715745,1.3792352554458425,-2.1318503790887604
12.08,-12.195667640379785,1.4805837615152964,-2.2049465017698813
12.09,-12.16354612543193,1.572726232894708,-2.288074556155666
12.1,-12.129715726287277,1.6546724201899412,-2.3802045564778735
12.11,-12.09452372468133,1.725556980100291,-2.480218379638501
12.120000000000001,-12.058315321592069,1.7846456048171524,-2.58691860987931
12.13,-12.021451204151512,1.831341987589652,-2.6990481187693818
12.14,-11.984295852511513,1.8651914982319604,-2.815302325573548
12.15,-11.947213663897893,1.8858838341049184,-2.9343435706312513
12.16,-11.910565172294824,1.8932543036911837,-3.054815427921534
12.17,-11.874703372347835,1.887283515178927,-3.1753569995171422
12.18,-11.839970206464253,1.8680958446616294,-3.2946168500527095
12.19,-11.806693190191499,1.8359566693693115,-3.4112666875644604
12.200000000000001,-11.77518227954149,1.7912680027850836,-3.524014507085748
12.21,-11.745726857941536,1.7345635464051488,-3.6316173591991148
12.22,-11.718593067127955,1.6665019314259988,-3.732893266863153
12.23,-11.694021185522963,1.587859685883693,-3.826732948673909
12.24,-11.672223488897004,1.4995223171973848,-3.9121101981520545
12.25,-11.653382262370549,1.4024752066189214,-3.9880916689463026
12.26,-11.637647959531682,1.2977934815949872,-4.053846306244243
12.27,-11.625137935329656,1.1866307492153154,-4.108652898746642
12.280000000000001,-11.615935289300301,1.0702076785997305,-4.151907182884768
12.290000000000001,-11.610087941005533,0.9497995357623644,-4.183128275424645
12.3,-11.60760829967907,0.826723336941854,-4.201962969546814
12.31,-11.60847303283834,0.7023247769728403,-4.20818964149801
12.32,-11.612623169208572,0.5779642708555401,-4.201721061771516
12.33,-11.619964725456631,0.45500332364821416,-4.182605166248565
12.34,-11.63036948369393,0.33479068702640413,-4.151025243797787
12.35,-11.643676165705907,0.21864771944128966,-4.1072987568004375
12.36,-11.659692040098633,0.10785538368539313,-4.051874195792373
12.370000000000001,-11.678194703413578,0.0036401911295404765,-3.9853274113384956
12.38,-11.698938050307143,-0.0928387999931315,-3.9083571337416214
12.39,-11.721648456339167,-0.18050291356021914,-3.821776647134924
12.4,-11.74602383488166,-0.25836616155759207,-3.726504864151864
12.41,-11.771747978757805,-0.3255457083726941,-3.623560049941527
12.42,-11.798488820287862,-0.38127240222622494,-3.5140481580785132
12.43,-11.825901938138868,-0.42489989879376844,-3.399151384981298
12.44,-11.853634238081643,-0.45591253782761176,-3.280115764436307
12.450000000000001,-11.881327779653196,-0.4739319081303682,-3.158237892675626
12.46,-11.908623714452013,-0.4787219791151065,-3.034850888400849
12.47,-11.935166277489683,-0.47019263946016426,-2.9113097811117434
12.48,-11.960606760598509,-0.4484016218844671,-2.788976596864961
12.49,-11.984607500079948,-0.41355482663979914,-2.6692050112008037
12.5,-12.00684575149133,-0.36600487097455836,-2.55332503235756
12.51,-12.02701742988924,-0.3062479378747057,-2.4426278101346366
12.52,-12.044840683506289,-0.2349189158879883,-2.3383506903827387
12.530000000000001,-12.060059216801996,-0.1527848613353811,-2.241662853162602
12.540000000000001,-12.072445359724933,-0.060736840991135244,-2.1536515533534346
12.55,-12.081802807131883,0.040219757895621544,-2.0753092835267077
12.56,-12.087969011376716,0.14897636242221937,-2.007521941436033
12.57,-12.090817178406425,0.2643336400558361,-1.9510582323877224
12.58,-12.090257852328511,0.3850151130883583,-1.9065603856729951
12.59,-12.086240049718576,0.5096817426989529,-1.874536388487405
12.6,-12.078751936742853,0.6369473077599137,-1.8553538030631265
12.61,-12.06782103761554,0.7653944815903222,-1.849235232159474
12.620000000000001,-12.05351396491208,0.8935912247679012,-1.8562555613204017
12.63,-12.035935665352516,1.0201074976678852,-1.876341001081642
12.64,-12.015228211263054,1.1435318612534728,-1.9092699096511774
12.65,-11.991569154944498,1.262487867586961,-1.9546753508994192
12.66,-11.965172837869337,1.3756503681731238,-2.012050595144121
12.67,-11.936282312062099,1.4817603141692695,-2.080753464341094
12.68,-11.905162603376262,1.5796391690284248,-2.1600132305080733
12.69,-11.872108318694625,1.6682029771228994,-2.248942562943996
12.700000000000001,-11.837435389072757,1.7464743798495435,-2.346546964161729
12.71,-11.80147735113865,1.8135935332161315,-2.451736613754406
12.72,-11.764581441479457,1.8688275437495396,-2.5633392796488623
12.73,-11.727104518354507,1.9115783972542153,-2.680114244574584
12.74,-11.689408930949572,1.9413891223048867,-2.800766846601653
12.75,-11.651858336834884,1.9579482726440103,-2.923963608348134
12.76,-11.614813544601365,1.9610926288461796,-3.048347681940384
12.77,-11.578628416607645,1.9508081248937168,-3.1725544723865955
12.780000000000001,-11.54364590757827,1.92722900357679,-3.295227146036543
12.790000000000001,-11.51019426493915,1.8906352216578952,-3.4150319212038713
12.8,-11.47858346574025,1.841448025801223,-3.5306728812666184
12.81,-11.44910185007123,1.780224444225873,-3.640906236179621
12.82,-11.422013100319235,1.7076496437735948,-3.744553793501068
12.83,-11.397553520654231,1.6245282773313758,-3.8405154730577418
12.84,-11.375929682253894,1.531774451110389,-3.9277807398264684
12.85,-11.357316412398646,1.4304006228366144,-4.005438946633823
12.86,-11.341855195897287,1.3215055411508922,-4.072688310808356
12.870000000000001,-11.329652967086766,1.206261378385849,-4.128843566998566
12.88,-11.320781304003852,1.0859002496640964,-4.173342206411156
12.89,-11.315276032579842,0.9617002601163762,-4.205749242205224
12.9,-11.313137228043622,0.8349712829543009,-4.225760500472537
12.91,-11.314329605462943,0.7070406547800736,-4.23320442633363
12.92,-11.31878329383282,0.5792388110537127,-4.228042422212955
12.93,-11.326394964370799,0.4528852526614987,-4.2103677392330106
12.94,-11.337030548949215,0.32927487712270065,-4.18040330680695
12.950000000000001,-11.35052967960611,0.20966492099139233,-4.138498602298762
12.96,-11.366692254923933,0.09526141184513329,-4.085120558010532
12.97,-11.385298800591444,-0.012791586203403676,-4.020851987785675
12.98,-11.406106582233056,-0.11342336176378454,-3.9463826053373294
12.99,-11.428852350003636,-0.205646605495431,-3.8625007449899673
13.0,-11.453255246515784,-0.2885664434086477,-3.770084215758681
13.01,-11.479019834626538,-0.3613883617795618,-3.67009043500841
13.02,-11.505839211060875,-0.42342499148793983,-3.5635459657637685
13.030000000000001,-11.533398217976526,-0.4741017756994709,-3.451535418093818
13.040000000000001,-11.561376632332955,-0.5129613391520945,-3.3351901336538354
13.05,-11.589452364344751,-0.5396666890818606,-3.215676565228165
13.06,-11.617304650714175,-0.5540032267798183,-3.0941844009140005
13.07,-11.644617142884675,-0.5558795075636622,-2.9719148036692093
13.08,-11.671080923150688,-0.5453268498677418,-2.850068663257595
13.09,-11.69639740498333,-0.5224977812577509,-2.729835026976771
13.1,-11.720281092163253,-0.48766339476294496,-2.6123798215058978
13.11,-11.742462174564778,-0.44120962961238847,-2.498834958290472
13.120000000000001,-11.762688940898244,-0.38363251880038673,-2.3902879097961325
13.13,-11.780729997445425,-0.3155325538161716,-2.2877718255853687
13.14,-11.796376272703235,-0.2376081278689517,-2.192256266182799
13.15,-11.809442793950783,-0.15064819209897282,-2.1046386351816966
13.16,-11.819770229753301,-0.0555241707060197,-2.025736344356477
13.17,-11.827226183364562,0.046818764222507386,-1.956279793237683
13.18,-11.8317062320802,0.15537097775017977,-1.896906201226212
13.19,-11.833134712306029,0.2690681660924866,-1.84815430446343
13.200000000000001,-11.83146524066716,0.38680153129870987,-1.8104599843845133
13.21,-11.826680967959597,0.5074282475220901,-1.7841528634389736
13.22,-11.818794586902163,0.6297821887648134,-1.769453785797185
13.23,-11.807852753922997,0.7526850461776874,-1.7664745998193176
13.24,-11.793923925026677,0.8749565104223674,-1.7752145926742673
13.25,-11.777104315554336,0.9954254741266406,-1.79556273659521
13.26,-11.757519603383809,1.1129410218372788,-1.827299689193571
13.27,-11.735321174289592,1.226382646385464,-1.8700997207624868
13.280000000000001,-11.710684680759124,1.3346703976150063,-1.92353392768026
13.290000000000001,-11.683808363460859,1.4367749213645897,-1.987074377327016
13.3,-11.654911163711098,1.5317264765666456,-2.0600993437806294
13.31,-11.624230687841994,1.6186238639766661,-2.141899091367604
13.32,-11.592020989879023,1.696642568045911,-2.2316825617921245
13.33,-11.558550208968603,1.7650422437564603,-2.3285847711675975
13.34,-11.524098085580068,1.8231734140044946,-2.4316748607601464
13.35,-11.48895337245155,1.8704833746611507,-2.5399647363970224
13.36,-11.453411158404942,1.906521245937212,-2.652418241075973
13.370000000000001,-11.41777015017297,1.930942038753738,-2.767960723351736
13.38,-11.382329895521703,1.9435098583267598,-2.885489025741654
13.39,-11.347388011363078,1.9441000595755396,-3.0038817003325837
13.4,-11.31323741882339,1.9327004040502125,-3.1220094280749318
13.41,-11.280163626797947,1.909411180028127,-3.2387454920211334
13.42,-11.24844205877476,1.8744443139437328,-3.3529763131817374
13.43,-11.218335475282661,1.8281213967636747,-3.4636118712606976
13.44,-11.190091539535096,1.770870717828519,-3.569595804839201
13.450000000000001,-11.163940477916885,1.7032233170810656,-3.669915365348855
13.46,-11.140092911422537,1.625808039675745,-3.7636109442963575
13.47,-11.11873787522981,1.5393456700211618,-3.849785087740868
13.48,-11.100041031323803,1.444642187386358,-3.9276109666886114
13.49,-11.084143104270963,1.3425812159664452,-3.9963401724758008
13.5,-11.0711585425037,1.234115706107494,-4.055309817057229
13.51,-11.061174432995735,1.1202589507980278,-4.103948808533707
13.52,-11.054255787720718,1.0020754347252063,-4.1417848067304215
13.530000000000001,-11.050427273257041,0.8806696134753701,-4.168444203183728
13.540000000000001,-11.049689366385522,0.7571765223670103,-4.18365982757244
13.55,-11.05201415689344,0.632750733198423,-4.187272411017801
13.56,-11.057344969187051,0.5085553691273358,-4.179231899961745
13.57,-11.065596940773972,0.3857508863218838,-4.159597819644522
13.58,-11.076657813660466,0.2654844245839003,-4.12853868306391
13.59,-11.090389035145225,0.1488786534825592,-4.086330313708429
13.6,-11.106627097018553,0.03702121308710696,-4.03335311599214
13.61,-11.125185123469144,-0.06904560468957979,-3.970088326249411
13.620000000000001,-11.145854667466914,-0.16833464534047815,-3.897113335691589
13.63,-11.168407727990724,-0.259923228209718,-3.815096052918468
13.64,-11.192598973152629,-0.34296181190456265,-3.724788319884462
13.65,-11.21816806995736,-0.41668182831930445,-3.6270187183259868
13.66,-11.24484218658613,-0.48040283677128304,-3.522684551497269
13.67,-11.272338641772778,-0.5335387875327049,-3.4127430558842025
13.68,-11.300367568654753,-0.5756032682361785,-3.298202316669404
13.69,-11.328634696768194,-0.6062138629513938,-3.1801115221466945
13.700000000000001,-11.356844140215205,-0.6250954330637042,-3.0595509454679886
13.71,-11.384701200837354,-0.6320823635964803,-2.9376216282209135
13.72,-11.411915136214775,-0.627119733694798,-2.8154349509459315
13.73,-11.43820188381088,-0.6102634253959891,-2.6941021265355998
13.74,-11.463286700871993,-0.5816791515326124,-2.5747237702014765
13.75,-11.48690670247676,-0.5416404319217836,-2.4583796197688357
13.76,-11.508813268715533,-0.4905255798203909,-2.3461185298714256
13.77,-11.52877430213025,-0.4288136841982638,-2.238948814369966
13.780000000000001,-11.546576312717038,-0.35707962267991644,-2.1378290329036083
13.790000000000001,-11.56202630643534,-0.2759882695815494,-2.043659346214085
13.8,-11.574953470414307,-0.18628784196790485,-1.9572734606268438
13.81,-11.585216391589267,-0.08880216359909121,-1.8794327570829237
13.82,-11.592687539817643,0.015576364461274472,-1.810815365611579
13.83,-11.597269898797633,0.1258963026272057,-1.7520144357883303
13.84,-11.598893589797441,0.24115603903861402,-1.7035321282258047
13.85,-11.597515787699765,0.3603132421122984,-1.6657754410338967
13.86,-11.593120938573513,0.48229459681939757,-1.6390531112552607
13.870000000000001,-11.58572072494934,0.6060058494292843,-1.62357342260416
13.88,-11.575353775774733,0.7303418299846357,-1.619443004583288
13.89,-11.562085133227136,0.8541965403974265,-1.6266665569443832
13.9,-11.546005481115534,0.9764731424361057,-1.6451475187955102
13.91,-11.527230152072582,1.0960937110957178,-1.674689647505164
13.92,-11.505897907788324,1.2120088408636185,-1.7149995082635283
13.93,-11.482169533902184,1.323206739207992,-1.7656898000666774
13.94,-11.456226243582067,1.4287219694380253,-1.8262835021385329
13.950000000000001,-11.428267915338495,1.5276436739684622,-1.8962187810010616
13.96,-11.398511186927045,1.6191231939972395,-1.9748545943748181
13.97,-11.367187415859442,1.702381075983748,-2.0614769528502346
13.98,-11.334540537354213,1.7767133700840414,-2.155305741344609
13.99,-11.300824831366631,1.8414971941196738,-2.255502063849226
14.0,-11.266302628643746,1.8961955352163684,-2.361175997126284
14.01,-11.231241967992103,1.9403612156824468,-2.47139473215484
14.02,-11.195914234244546,1.9736400675398245,-2.5851909678591705
14.030000000000001,-11.160591792636158,1.9957732411879345,-2.7015715229292185
14.040000000000001,-11.125545643852675,2.006598676556746,-2.8195260602160097
14.05,-11.091043115168386,2.006051721476677,-2.9380358702457605
14.06,-11.057345612136112,1.9941649198205909,-3.0560826117982782
14.07,-11.024706443411604,1.9710669698724588,-3.172656962898968
14.08,-10.99336874449814,1.9369808854643475,-3.2867670741322734
14.09,-10.963563500746877,1.8922213875608462,-3.3974468154481943
14.1,-10.935511773957183,1.8371917883842417,-3.5037647366840607
14.11,-10.909412651552454,1.772379333624182,-3.60482894479615
14.120000000000001,-10.885448258364063,1.698350874022921,-3.699795921253561
14.13,-10.863783945192825,1.615747680797899,-3.7878776032363346
14.14,-10.84456517192777,1.5252794362393631,-3.868346976723387
14.15,-10.82791641813763,1.4277179234083726,-3.9405437368466742
14.16,-10.813940355999051,1.3238901279615398,-4.003879105165536
14.17,-10.802717131453702,1.214671139716493,-4.057840239527216
14.18,-10.794303862413678,1.1009766409803783,-4.101993914693602
14.19,-10.788734348218075,0.9837551537020409,-4.135989450427418
14.200000000000001,-10.786018907426723,0.8639800805896657,-4.159561164904794
14.21,-10.786144517807152,0.7426416438216292,-4.172529731463298
14.22,-10.789075016441398,0.620738782496345,-4.174803259375176
14.23,-10.794751555666398,0.499271023966779,-4.166377423456574
14.24,-10.803093212148394,0.37923042457105594,-4.147334975456425
14.25,-10.81399776997327,0.26159365936243684,-4.117844551270226
14.26,-10.82734266460383,0.14731425561045203,-4.078158820858658
14.27,-10.842986077086271,0.03731511405937747,-4.028611991562669
14.280000000000001,-10.860768173317819,-0.06751870859401607,-3.969616689087537
14.290000000000001,-10.880512478243904,-0.16634682367385967,-3.90166023008399
14.3,-10.902027361218593,-0.2583799680767533,-3.8253003743409923
14.31,-10.92510763485597,-0.34288602308565674,-3.7411605381752344
14.32,-10.949536248889668,-0.41919553872066134,-3.649924526533829
14.33,-10.97508606233107,-0.48670670858616427,-3.5523308372914872
14.34,-11.001521688237387,-0.5448898392166195,-3.449166563917168
14.35,-11.028601386159712,-0.593291199900989,-3.3412609720374977
14.36,-11.05607899468416,-0.631536268116098,-3.229478781104664
14.370000000000001,-11.083705888037331,-0.6593323476237053,-3.1147132073410857
14.38,-11.11123294190265,-0.6764705402748397,-2.997878821219617
14.39,-11.138413734095305,-0.6828269831820386,-2.8799045985262235
14.4,-11.165007136944125,-0.678363454769203,-2.7617267582109037
14.41,-11.19076977696743,-0.6631279268452817,-2.64427895454355
14.42,-11.215469845239657,-0.6372531787092804,-2.5284880316981555
14.43,-11.238884477465254,-0.6009557109732534,-2.4152656661993204
14.44,-11.260801462741911,-0.5545337743189904,-2.3055013054567306
14.450000000000001,-11.281020873971654,-0.49836479659862126,-2.200055265519747
14.46,-11.299356612141512,-0.4329021603951514,-2.099752009811179
14.47,-11.31563777012165,-0.3586714077241103,-2.0053740139019482
14.48,-11.329709959472464,-0.2762659622392588,-1.9176556295731626
14.49,-11.341436450350496,-0.1863422882490391,-1.8372775636040855
14.5,-11.350699199869965,-0.08961457742786605,-1.7648616663776893
14.51,-11.35739970405843,0.01315094635625172,-1.7009663245914375
14.52,-11.36145973468092,0.12114220388662586,-1.646082172437987
14.530000000000001,-11.362821865836217,0.2335076527211929,-1.6006285866130538
14.540000000000001,-11.361449884369897,0.3493630185620551,-1.564950531776862
14.55,-11.357329018560653,0.4677983379704904,-1.5393160418716128
14.56,-11.350465982596804,0.5878850067095818,-1.5239144240920066
14.57,-11.34088888322585,0.7086830952423815,-1.5188549166585381
14.58,-11.32864693981415,0.829248774715787,-1.5241660485086845
14.59,-11.313810043679903,0.948641493124628,-1.539795689811224
14.6,-11.296468169988426,1.0659313778716066,-1.5656116011071248
14.61,-11.276730624204546,1.180206422423176,-1.6014026821837766
14.620000000000001,-11.254725148677222,1.290579474425538,-1.646880807847607
14.63,-11.230596863613252,1.396195195821263,-1.701683303829011
14.64,-11.204507122425833,1.4962363777675822,-1.765375918928822
14.65,-11.176632207918137,1.5899303303518353,-1.8374563742298957
14.66,-11.14716191682716,1.676554756144319,-1.9173584746554142
14.67,-11.116298069421935,1.755443119290025,-2.004456630170184
14.68,-11.08425290534594,1.8259897033049226,-2.098070881455616
14.69,-11.05125022684865,1.8876542685377846,-2.1974730066018724
14.700000000000001,-11.017517701044474,1.939965740172956,-2.301890873918712
14.71,-10.983286079745792,1.9825255625451919,-2.410514598577038
14.72,-10.948792032695279,2.0150109546950756,-2.52250422673969
14.73,-10.914273822622727,2.037176967437462,-2.636995612534142
14.74,-10.879969463349859,2.04885813537639,-2.7531071542873256
14.75,-10.846114885933291,2.049969496786283,-2.8699466463790193
14.76,-10.812942133862297,2.0405069654620043,-2.986618170735935
14.77,-10.780677602076688,2.020547095201488,-3.1022289581375695
14.780000000000001,-10.74954031674954,1.9902462173775617,-3.215896236993195
14.790000000000001,-10.719740282399972,1.949838959382285,-3.3267539656317218
14.8,-10.691476910444772,1.899636164935841,-3.4339593887809032
14.81,-10.664937536065285,1.8400222380735636,-3.536699385951868
14.82,-10.640296033777815,1.7714519298678995,-3.634196567181584
14.83,-10.617711546170892,1.694446601174346,-3.725715052995959
14.84,-10.59732733234874,1.6095899927870827,-3.8105659057119103
14.85,-10.57926974336244,1.5175235342819446,-3.8881121765277857
14.86,-10.56364733604751,1.4189412443535052,-3.957773512654867
14.870000000000001,-10.550550126470613,1.3145842535303882,-4.019030312034908
14.88,-10.540048988877764,1.2052349913749918,-4.071427393133518
14.89,-10.532195206904808,1.0917111043081096,-4.1145771390004535
14.9,-10.527020175652527,0.974859137199206,-4.14816211265973
14.91,-10.524535257198448,0.8555480329959257,-4.171937121519193
14.92,-10.524731789626697,0.7346625082513246,-4.185730717208964
14.93,-10.527581247757228,0.6130963459877556,-4.1894461280206965
14.94,-10.53303555299828,0.4917456839326678,-4.183061616403809
14.950000000000001,-10.54102752881425,0.37150229901614973,-4.166630273667631
14.96,-10.551471497729752,0.2532469931666649,-4.140279244718294
14.97,-10.564264011718988,0.13784311594179607,-4.104208405525083
14.98,-10.579284712848214,0.026130237783035762,-4.058688501650354
14.99,-10.596400385903891,-0.08108173128157747,-4.004059571339822
15.0,-10.615458759295434,-0.1830188183854148,-3.9407261832463467
15.01,-10.63629310220833,-0.2789482826954176,-3.869154979249474
15.02,-10.658726277966714,-0.3681835993503071,-3.7898716217861725
15.030000000000001,-10.68257015590481,-0.450089360742283,-3.703456108205316
15.040000000000001,-10.70762705107437,-0.52408564278121,-3.61053821684054
15.05,-10.733691219961095,-0.5896519129731332,-3.5117926311885466
15.06,-10.760550403352582,-0.6463304786407421,-3.407933774535855
15.07,-10.787987405902726,-0.6937294483704002,-3.299710390045968
15.08,-10.815781698706546,-0.7315251863017209,-3.187899914576162
15.09,-10.843711030421456,-0.7594642448914833,-3.073302698732629
15.1,-10.871553042520022,-0.7773647794234427,-2.956736090518881
15.11,-10.899086864132908,-0.7851174210621855,-2.8390284729938355
15.120000000000001,-10.926094688548428,-0.7826856283232119,-2.7210132515935936
15.13,-10.952363314706085,-0.7701055077789377,-2.603522853681737
15.14,-10.977685637212174,-0.747485112505406,-2.487382806337884
15.15,-11.001862082478477,-0.7150032306167314,-2.373405904904039
15.16,-11.024701979202082,-0.6729076852573648,-2.2623865209780676
15.17,-11.046024853197839,-0.6215131535949686,-2.1550950919143093
15.18,-11.065661637132306,-0.5611985292317411,-2.0522728344309127
15.19,-11.08345579013916,-0.4924038614340202,-1.9546267069441792
15.200000000000001,-11.099264320587112,-0.4156268822144809,-1.862824651417596
15.21,-11.112958702095183,-0.33141916114331216,-1.7774911620583456
15.22,-11.124425679137635,-0.24038192831383523,-1.699203203871872
15.23,-11.133567965608753,-0.14316155744952683,-1.6284864655020634
15.24,-11.140304817426385,-0.040444807623781207,-1.5658120442423364
15.25,-11.144572491378963,0.06704618917038577,-1.5115935102560387
15.26,-11.146324578431193,0.17855914408268075,-1.4661844113874651
15.27,-11.14553221764539,0.29331698165294373,-1.429876201006259
15.280000000000001,-11.142184184890077,0.4105233307537234,-1.402896624173245
15.290000000000001,-11.136289118482999,0.5293682508036792,-1.3854091256767314
15.3,-11.127871095980645,0.649033598279906,-1.3775110291739587
15.31,-11.116968616936427,0.7686986121937475,-1.3792330826047707
15.32,-11.1036395021913,0.8875458314290087,-1.3905410107284264
15.33,-11.08795787814622,1.0047664834288503,-1.4113354936794957
15.34,-11.070013577258422,1.1195658991564819,-1.4414532301559086
15.35,-11.049911436402262,1.2311688065939206,-1.480668423326473
15.36,-11.027770501144945,1.3388244313487403,-1.5286946761728417
15.370000000000001,-11.003723140522991,1.4418114101813893,-1.5851872748497984
15.38,-10.977914080955467,1.539442456308218,-1.6497458424151024
15.39,-10.950499365960452,1.6310687566026942,-1.7219173420282625
15.4,-10.921645248387206,1.7160840841238394,-1.8011994065820813
15.41,-10.891527022354023,1.7939285989721978,-1.8870439735012272
15.42,-10.860327810304193,1.8640922918188043,-1.9788611763890607
15.43,-10.828237300535342,1.9261180994106113,-2.0760235033899734
15.44,-10.795450456833134,1.9796046258584843,-2.1778701555373545
15.450000000000001,-10.762166201345956,2.024208493272293,-2.2837115926595435
15.46,-10.72858608056825,2.059646280942858,-2.3928342426236524
15.47,-10.694912927338509,2.08569606196368,-2.5045053176333183
15.48,-10.661349520607557,2.1021985366011338,-2.6179777317763446
15.49,-10.62809726168076,2.109057731546793,-2.732495058051548
15.5,-10.595354860829492,2.1062413083148215,-2.8472965323589685
15.51,-10.56331704690613,2.0937804581249124,-2.961622062524059
15.52,-10.532173338128372,2.071769310776151,-3.0747171283959425
15.530000000000001,-10.502106822917424,2.0403640571017974,-3.185837688180467
15.540000000000001,-10.473293010366852,1.9997816002011397,-3.2942549390905995
15.55,-10.445898726985545,1.9502978601053647,-3.3992599722993275
15.56,-10.42008108348506,1.8922456890599395,-3.500168251893249
15.57,-10.395986511134275,1.826012442684487,-3.596323904246174
15.58,-10.373749866438601,1.7520372381125355,-3.6871038114494556
15.59,-10.353494129718312,1.6708078984407353,-3.771921643226245
15.6,-10.335332116027763,1.5828577241623445,-3.8502319709207637
15.610000000000001,-10.319355430185055,1.4887612703066135,-3.9215309682671573
15.620000000000001,-10.305645361576646,1.3891311329777918,-3.9853624138437627
15.63,-10.294268459065872,1.2846136358205584,-4.041319266560048
15.64,-10.285276151793775,1.1758845536561842,-4.089046111661668
15.65,-10.278704495496706,1.0636446680857399,-4.128241173965669
15.66,-10.274574014066937,0.9486152032757378,-4.1586579890985895
15.67,-10.272889635817805,0.8315331548925324,-4.180106730941848
15.68,-10.273640730152113,0.7131465429571433,-4.192455169352467
15.69,-10.276801243418545,0.5942096290267501,-4.195629253560653
15.700000000000001,-10.282329930114376,0.4754781158914255,-4.189613330314372
15.71,-10.290170678564614,0.35770437819842976,-4.174449990350468
15.72,-10.300252926996984,0.24163271845319761,-4.150239557747292
15.73,-10.312492170703518,0.1279947188428521,-4.117139207373535
15.74,-10.326790551144123,0.017504704376612112,-4.07536173916557
15.75,-10.343037525694518,-0.08914469730340244,-4.025174014809653
15.76,-10.36111061310017,-0.1912867657029858,-3.966895055888137
15.77,-10.380876215141482,-0.2882848519173878,-3.900893823196122
15.780000000000001,-10.402190494366005,-0.3795360944659547,-3.827586700224879
15.790000000000001,-10.42490031338955,-0.464475154396421,-3.747434713476814
15.8,-10.448844229420578,-0.5425775518611952,-3.6609404660943294
15.81,-10.473853534122494,-0.6133627747516013,-3.5686448371714787
15.82,-10.49975333321262,-0.6763970887517358,-3.4711234595018245
15.83,-10.52636365922727,-0.731296045220288,-3.3689829985540296
15.84,-10.553500606384555,-0.7777266560896723,-3.2628572703251644
15.85,-10.58097748892141,-0.8154092616693434,-3.1534031949114705
15.860000000000001,-10.608606008295089,-0.8441190428785416,-3.041296634928595
15.870000000000001,-10.63619742102982,-0.8636871834861802,-2.9272281504849365
15.88,-10.66356370675932,-0.8740016883398534,-2.8118986731709614
15.89,-10.69051872634797,-0.8750078462734381,-2.6960151357007627
15.9,-10.716881693120246,-0.8667081895876928,-2.5802867049944656
15.91,-10.742473221729469,-0.8491625496179215,-2.4654191178927154
15.92,-10.767117579104154,-0.8224873893639995,-2.352110625143287
15.93,-10.79064724666019,-0.7868546320367034,-2.2410486930938407
15.94,-10.812901962836568,-0.7424905130990003,-2.1329053186415825
15.950000000000001,-10.833729677100099,-0.6896739684120047,-2.028332966821206
15.96,-10.852987437723487,-0.6287347145141231,-1.9279606964761407
15.97,-10.870542232574184,-0.5600510228852612,-1.832390391450207
15.98,-10.886271748955537,-0.4840472271916443,-1.742193248426672
15.99,-10.900065086017873,-0.4011909140206051,-1.6579063673959986
16.0,-10.911823359462074,-0.3119899446785408,-1.5800297321155707
16.01,-10.92146026574168,-0.21698918567889106,-1.5090232635649075
16.02,-10.928902545168334,-0.1167670589615469,-1.4453042332803938
16.03,-10.934090369822636,-0.011931897662978183,-1.389244918698475
16.04,-10.936977645141061,0.09688184563881243,-1.341170559267989
16.05,-10.937532229198005,0.20901754366402256,-1.3013575939136088
16.06,-10.935736063762882,0.32380043724040336,-1.2700322183710828
16.07,-10.931585220801765,0.4405417606625488,-1.2473692493477668
16.080000000000002,-10.925089863856005,0.5585429410657732,-1.2334913002188814
16.09,-10.916274123767346,0.67709981937752,-1.2284682837140002
16.1,-10.905175891556604,0.7955068847479048,-1.2323172312544264
16.11,-10.89184653078162,0.9130614732422919,-1.2450024325451248
16.12,-10.876350509139451,1.029067967806766,-1.2664358853780726
16.13,-10.858764955393486,1.1428418807523215,-1.2964780632034103
16.14,-10.839179143561223,1.2537138630498046,-1.3349389800958438
16.15,-10.817693907222433,1.3610336039378315,-1.38157955104172
16.16,-10.794420988401301,1.4641735894561814,-1.436113237765256
16.17,-10.769482326506072,1.5625326938189907,-1.4982079659065255
16.18,-10.74300929238939,1.655539591446718,-1.5674882951463582
16.19,-10.715141869666535,1.7426559794216134,-1.643537836927726
16.2,-10.686027791745703,1.823379575231486,-1.7259018959879782
16.21,-10.655824745468403,1.8972470705211195,-1.8140911247689961
16.22,-10.624691071596635,1.9638361511453224,-1.9075824022705916
16.23,-10.592791223384868,2.022768135572178,-2.0058237012988323
16.240000000000002,-10.56029459026221,2.0737099574549838,-2.108237393757061
16.25,-10.527373505612044,2.1163758265060273,-2.214223513547222
16.26,-10.494202245962983,2.150528615719991,-2.32316330816979
16.27,-10.460956002301167,2.175981019651333,-2.434422942043238
16.28,-10.427809866665337,2.1925963704881637,-2.547357226951442
16.29,-10.394937821468929,2.20028916960438,-2.6613134053985616
16.3,-10.362511744347206,2.1990253145535363,-2.775634945072714
16.31,-10.33070043234634,2.188822027708295,-2.8896653278256252
16.32,-10.299668649604047,2.16974749104234,-3.0027518151606705
16.330000000000002,-10.269576207655184,2.141920186359721,-3.1142491572414652
16.34,-10.240577078681708,2.1055079589632175,-3.223523236875294
16.35,-10.212818546879774,2.0607267960851336,-3.3299546325720653
16.36,-10.186440412388228,2.0078393406193764,-3.4329420427447612
16.37,-10.16157423502746,1.9471531575734784,-3.531905608861346
16.38,-10.13834263462773,1.8790187517669175,-3.6262900798007527
16.39,-10.116858646533084,1.8038273575720127,-3.715567815139073
16.4,-10.097225137115204,1.7220085142705686,-3.7992416068926076
16.41,-10.079534278485447,1.6340274377527186,-3.876847317934258
16.42,-10.063867094848971,1.5403822195980341,-3.947956287592899
16.43,-10.050293066118972,1.4416008608719053,-4.012177548807595
16.44,-10.038869803956306,1.3382381590353154,-4.069159802245209
16.45,-10.029642795891204,1.2308724675556098,-4.118593156205512
16.46,-10.02264521970513,1.120102350687458,-4.160210619510837
16.47,-10.01789782747627,1.0065431511993186,-4.193789345026534
16.48,-10.015408899538427,0.8908234889931751,-4.2191516188762295
16.490000000000002,-10.015174268450437,0.7735817211094425,-4.236165588249205
16.5,-10.017177411109394,0.6554623680787499,-4.244745733460489
16.51,-10.02138960789146,0.5371125308231771,-4.244853082362792
16.52,-10.02777314254882,0.41917850710286214,-4.2364959327174745
16.53,-10.036273548806967,0.30230178592980983,-4.219727456976557
16.54,-10.046826232270693,0.18711593834304474,-4.19464678655784
16.55,-10.05935657469528,0.07424318804681554,-4.161398134363847
16.56,-10.073779508796111,-0.03570894811058761,-4.12016951425089
16.57,-10.090000035242197,-0.1421508797272033,-4.071191485530348
16.580000000000002,-10.107913792995701,-0.24451403038026695,-4.014735664156068
16.59,-10.127407675711908,-0.3422537914945811,-3.951113024247258
16.6,-10.148360489546231,-0.434852314617162,-3.8806720027271484
16.61,-10.170643650648891,-0.5218211484708591,-3.803796414001744
16.62,-10.194121915920821,-0.6027036935843488,-3.720903193408313
16.63,-10.218654144522317,-0.6770774631249759,-3.6324399780962815
16.64,-10.244094083749932,-0.744556144618512,-3.5388825468972978
16.65,-10.27029117635335,-0.8047914627825761,-3.4407321290504034
16.66,-10.297091385639288,-0.8574747980356576,-3.3385125940215823
16.67,-10.324338030975678,-0.9023386147878156,-3.232767549771336
16.68,-10.351872631405648,-0.9391576514407194,-3.124057355601498
16.69,-10.379535752610423,-0.967749852507506,-3.012956069083514
16.7,-10.407167851193448,-0.9879770986323653,-2.900048348440953
16.71,-10.434610113217655,-0.9997456854517186,-2.785926322372828
16.72,-10.461705283425726,-1.0030065681852889,-2.671186441189388
16.73,-10.488298479141722,-0.9977553678466597,-2.5564263323962573
16.740000000000002,-10.514237984158749,-0.9840321454167057,-2.4422416797846576
16.75,-10.539376023205739,-0.9619209493285608,-2.329223124141557
16.76,-10.563569507296668,-0.9315491327003615,-2.2179532244101217
16.77,-10.58668074910745,-0.893086453206333,-2.109003484198191
16.78,-10.608578146465172,-0.8467439639464893,-2.0029314518244563
16.79,-10.629136828032749,-0.7927726962276689,-1.9002779194448935
16.8,-10.648373240021852,-0.7316956946149081,-1.8011003253805231
16.81,-10.666050834734113,-0.6635749152673498,-1.706231969503337
16.82,-10.68234932699156,-0.5890654971728237,-1.615182088205262
16.830000000000002,-10.697028031695911,-0.5081712800921091,-1.5289336673344978
16.84,-10.709856150707685,-0.4211111995303129,-1.448427397266076
16.85,-10.720748672347037,-0.3283368292528898,-1.3740915723979814
16.86,-10.729632393759834,-0.2303306569074305,-1.3063219676901485
16.87,-10.736444883254858,-0.12760342529304378,-1.2454792676724615
16.88,-10.741134835666216,-0.020691299896079318,-1.1918870235601704
16.89,-10.743662355725752,0.08984711888205059,-1.1458298641098132
16.9,-10.743999174282298,0.20343391428909938,-1.1075519359145576
16.91,-10.74212879665153,0.3194750883373688,-1.0772555785612046
16.92,-10.738046580844088,0.43736388193718245,-1.0551002517288763
16.93,-10.731759746378804,0.556484171306288,-1.0412017124562059
16.94,-10.723287312952936,0.6762139036608369,-1.035631455100882
16.95,-10.71265997030295,0.7959285627313818,-1.038416410135565
16.96,-10.699919879713178,0.915004643640633,-1.049538904692158
16.97,-10.685120409152727,1.0328230980468998,-1.0689368873462584
16.98,-10.668325803479123,1.1487727503758718,-1.0965044100131158
16.990000000000002,-10.649610793093153,1.262253642788813,-1.1320923648505345
17.0,-10.629060142548731,1.3726803072722231,-1.1755094697770117
17.01,-10.606768143921487,1.4794849273412487,-1.2265234935582714
17.02,-10.582838056386684,1.5821203880175225,-1.2848627143684035
17.03,-10.557381498695056,1.6800631761785012,-1.3502175955817866
17.04,-10.530517797077778,1.7728161278211405,-1.422242669311665
17.05,-10.502373291835957,1.8599110101038798,-1.500558617624639
17.06,-10.47308061057326,1.9409109077288307,-1.584754528551849
17.07,-10.442777909257682,2.0154124173243644,-1.6743903207598687
17.080000000000002,-10.411608089600705,2.0830476253524246,-1.7689993101461257
17.09,-10.379717995040808,2.1434858693853536,-1.8680909092980333
17.1,-10.347257592087745,2.196435269129406,-1.9711534370140331
17.11,-10.314379141061016,2.2416440261975565,-2.077657021707751
17.12,-10.281236364369304,2.278901470635174,-2.187056575621466
17.13,-10.247983613044244,2.3080388788346258,-2.2987948260611044
17.14,-10.21477760658035,2.3289302010290998,-2.412306051795065
17.150000000000002,-10.181769915974545,2.3414919699252215,-2.5270174204509908
17.16,-10.149110830201066,2.3456836865254744,-2.642353311126799
17.17,-10.116949070059473,2.341507644431285,-2.7577384489420957
17.18,-10.085429998684875,2.3290085098856443,-2.8726006838715397
17.19,-10.05469487914319,2.308272704526178,-2.9863740006733517
17.2,-10.024880191456951,2.279427538968031,-3.0985013659737968
17.21,-9.996116965224193,2.2426401611205433,-3.2084375507589575
17.22,-9.968530155054049,2.1981163001248993,-3.315651835318014
17.23,-9.942238056509987,2.1460988130628866,-3.4196306039580433
17.240000000000002,-9.917351771861009,2.08686605312681,-3.519879790514689
17.25,-9.89397471559259,2.0207300754714237,-3.615927204776626
17.26,-9.872202170542495,1.9480346851981594,-3.7073247012094073
17.27,-9.852120895999056,1.8691533516067376,-3.7936501782288397
17.28,-9.833809235923956,1.7844896399173353,-3.8745070595580624
17.29,-9.817335268710448,1.694466663934855,-3.949533887593112
17.3,-9.802758098715678,1.599530683089973,-4.018398512080572
17.31,-9.790128004760076,1.5001540075207014,-4.080796830099122
17.32,-9.779484941239911,1.3968226070520973,-4.136461454679007
17.330000000000002,-9.770859161917375,1.290038168242407,-4.185158830302353
17.34,-9.764271092847668,1.1803147535443699,-4.226690497228927
17.35,-9.759731358358211,1.0681761767587763,-4.2608936011272425
17.36,-9.757240851018226,0.9541533503951178,-4.287641238141617
17.37,-9.756790848670866,0.838781632467233,-4.306842618046414
17.38,-9.758363178010828,0.7225982043701467,-4.318443040641066
17.39,-9.761930421394382,0.6061394897024455,-4.322423695251969
17.400000000000002,-9.767456164525665,0.489938626466875,-4.318801289638877
17.41,-9.774895286938781,0.37452297984421923,-4.30762750569386
17.42,-9.784194284240309,0.26041176364073576,-4.28898830480632
17.43,-9.795291626703774,0.14811372580909565,-4.263003079036798
17.44,-9.808118068892915,0.03812546725501055,-4.22982384275729
17.45,-9.822599533511845,-0.06907275536172558,-4.18963392369711
17.46,-9.83865191484238,-0.17301599176405366,-4.142646433647534
17.47,-9.856184488331728,-0.2732585823236461,-4.089102905735878
17.48,-9.875101992949055,-0.3693752679130553,-4.0292724024238336
17.490000000000002,-9.89530385992355,-0.46096289673657065,-3.963449616266654
17.5,-9.916684732224269,-0.5476419330966649,-3.8919532120844322
17.51,-9.939134995544475,-0.6290578287551498,-3.8151240929873382
17.52,-9.962541326915193,-0.7048822656010384,-3.7333235715746964
17.53,-9.986787235490217,-0.7748142318045956,-3.6469315287408777
17.54,-10.011753580552648,-0.8385809659133654,-3.5563446175178837
17.55,-10.037319191406493,-0.8959388144824811,-3.4619740926251867
17.56,-10.063361371392292,-0.9466738488308628,-3.36424399107906
17.57,-10.089756431752136,-0.9906024140091756,-3.2635891898178717
17.580000000000002,-10.116380262181377,-1.0275715206841773,-3.160453304444156
17.59,-10.143108856917332,-1.0574590730675653,-3.0552867107306363
17.6,-10.169818806955242,-1.0801740234980697,-2.9485446625344993
17.61,-10.196387840438506,-1.0956563317134451,-2.8406852099055357
17.62,-10.22269531070675,-1.1038768048145209,-2.7321672773493906
17.63,-10.248622646694171,-1.1048369113566983,-2.623448858945506
17.64,-10.274053856123938,-1.098568299078686,-2.5149849906263757
17.650000000000002,-10.298875942503676,-1.0851323490466527,-2.4072260197517608
17.66,-10.322979333968256,-1.064619553415037,-2.300615808019972
17.67,-10.346258283726847,-1.0371488105283886,-2.1955900192251123
17.68,-10.368611251565254,-1.0028666085389215,-2.0925744571869505
17.69,-10.389941260924397,-0.9619461205234687,-1.9919834763752482
17.7,-10.410156232886278,-0.9145862104344427,-1.8942184613113304
17.71,-10.42916929567591,-0.8610103575485316,-1.7996663815823657
17.72,-10.446899068845394,-0.8014655064057876,-1.7086984273913914
17.73,-10.463269924038512,-0.7362208404922155,-1.621668718310583
17.740000000000002,-10.478212218183709,-0.665566498109451,-1.538913104640422
17.75,-10.491662502031797,-0.5898122256026882,-1.4607480498758618
17.76,-10.503564824647308,-0.5092859145355466,-1.3874698960822431
17.77,-10.5138696624559,-0.4243322239845232,-1.3193536019116658
17.78,-10.522530978906884,-0.3353112833026116,-1.2566511054634275
17.79,-10.529511662098528,-0.24259684979159568,-1.1995919485705446
17.8,-10.534781445436554,-0.14657488459704426,-1.1483820549220676
17.81,-10.53831696045905,-0.04764197769511089,-1.1032031609874846
17.82,-10.54010176411241,0.05379624427562181,-1.0642123422209215
17.830000000000002,-10.540126340526834,0.15732673159762273,-1.0315416340903987
17.84,-10.538388082378356,0.2625306095522341,-1.0052977289190668
17.85,-10.534891240735329,0.36898481834335145,-0.9855617962371633
17.86,-10.529646855181008,0.4762637206312116,-0.9723893801506402
17.87,-10.522672660903062,0.5839407064722274,-0.9658103868159501
17.88,-10.513992982882508,0.6915897679035132,-0.9658291162771616
17.89,-10.503638584547168,0.7987871187206727,-0.9724244904409955
17.900000000000002,-10.491646510051428,0.9051127299831347,-0.9855503065241318
17.91,-10.478059923610743,1.010151842721669,-1.0051354828800934
17.92,-10.462927885342317,1.1134965006826083,-1.0310846036105048
17.93,-10.446305147223413,1.2147469890163445,-1.063278356526454
17.94,-10.42825191544346,1.313513261186169,-1.1015741236531347
17.95,-10.408833597949409,1.4094163203457244,-1.1458066360233214
17.96,-10.388120534005585,1.5020895517149584,-1.1957887118235513
17.97,-10.366187709584509,1.5911800027964682,-1.251312059793783
17.98,-10.34311445795045,1.676349610432962,-1.312148152162276
17.990000000000002,-10.318984147249923,1.757276366027864,-1.3780491623795097
18.0,-10.293883855869097,1.8336554186327338,-1.4487489646038103
18.01,-10.267904035671128,1.9052001166125874,-1.5239641940446997
18.02,-10.241138166372183,1.9716429784062832,-1.6033953572104511
18.03,-10.21368239989185,2.032736593556836,-1.6867279976748488
18.04,-10.185635196732967,2.0882544390304147,-1.7736339157753958
18.05,-10.15709695735449,2.1379916421762934,-1.863772411118555
18.06,-10.128169645914651,2.1817656385001674,-1.9567915893807566
18.07,-10.098956411397394,2.2194167717671585,-2.052329683614087
18.080000000000002,-10.069567203313674,2.250809150378031,-2.1500179708719616
18.09,-10.040101280349838,2.2758300467898995,-2.2494777331987112
18.1,-10.01066212144049,2.2943911536454933,-2.350325618725903
18.11,-9.981353781937166,2.3064286363227535,-2.4521742234415895
18.12,-9.952279587043249,2.3119032392708774,-2.5546332869586688
18.13,-9.92354175423218,2.310800359804982,-2.657311134692229
18.14,-9.89524102028466,2.303130033659812,-2.7598161225354296
18.150000000000002,-9.867476275083561,2.2889268311501314,-2.8617580763759953
18.16,-9.8403442025676,2.2682496658499547,-2.96274972408171
18.17,-9.813938929557022,2.2411815162967224,-3.0624081168449613
18.18,-9.788351686089603,2.207829059634827,-3.160356027101019
18.19,-9.76367047540037,2.168322221172449,-3.2562233279872737
18.2,-9.73997975721241,2.1228136393436303,-3.349648341348981
18.21,-9.717360144411042,2.0714780490697438,-3.4402791528659447
18.22,-9.69588811366309,2.0145115852229933,-3.5277748914812372
18.23,-9.675635732430843,1.9521310087038204,-3.611806963687487
18.240000000000002,-9.656670402709604,1.8845728584030361,-3.692060240364937
18.25,-9.639054621399126,1.812092530792183,-3.7682341956048453
18.26,-9.622845760699027,1.7349632927641054,-3.8400439842891383
18.27,-9.608095866295718,1.6534752282328775,-3.907221465469187
18.28,-9.594851477990728,1.5679341283388994,-3.969516153262151
18.29,-9.583153467234785,1.478660317429077,-4.026696115223665
18.3,-9.573036900201762,1.3859874353849566,-4.078548784248767
18.31,-9.564530920536258,1.290261168298573,-4.124881705229474
18.32,-9.557658654846575,1.1918379369592158,-4.16552320373041
18.330000000000002,-9.55243714105974,1.0910835482194536,-4.200322974946775
18.34,-9.548877280269759,0.9883718171911072,-4.229152589056469
18.35,-9.546983810198254,0.8840831544366565,-4.251905919912789
18.36,-9.546755303572619,0.7786031397837869,-4.268499481798801
18.37,-9.548184188872476,0.6723210761484804,-4.278872683707204
18.38,-9.551256794311008,0.5656285332253752,-4.2829879962129205
18.39,-9.555954014537779,0.4589179258797284,-4.280831184339435
18.400000000000002,-9.562251964029482,0.3525810845240843,-4.272411447768524
18.41,-9.57011678083083,0.24700748324239585,-4.257759953743602
18.42,-9.579511286327769,0.1425831961575824,-4.23693133364506
18.43,-9.5903927556098,0.03968932447700371,-4.2100028113382795
18.44,-9.602712808216152,-0.06129680359983995,-4.1770744589596855
18.45,-9.616418525173305,-0.1600119129854563,-4.1382668933503535
18.46,-9.631451869127215,-0.2560990403895946,-4.093722087578224
18.47,-9.647749556202106,-0.3492079691319967,-4.043604014137508
18.48,-9.66524386427374,-0.4390013689850436,-3.9880967456919483
18.490000000000002,-9.683863668451831,-0.5251593625133716,-3.927401344207863
18.5,-9.703533510504647,-0.6073731105945381,-3.861738302622771
18.51,-9.72417377768063,-0.6853466248023811,-3.791347258337107
18.52,-9.745701991146221,-0.7588024061502596,-3.7164831027313143
