t,ax,ay,az
0,0.0,0.0,0.0
0.01,0.0,0.0,0.0
0.02,0.0,0.0,0.0
0.03,0.0,0.0,0.0
0.04,0.0,0.0,0.0
0.05,0.0,0.0,0.0
0.06,1.3278391394209759,-0.30858981600143487,5.1334261130014935
0.07,6.256969756629768,-1.4541197714407583,24.189445079130685
0.08,11.18869493940766,-2.6002527039183403,43.25549463575002
0.09,16.124196840276486,-3.747263345680256,62.336144984508906
0.1,23.638047233523533,-5.49348217707087,91.384690604802
0.11,24.173254551623362,-5.617864357797271,93.45380209657593
0.12,24.709247152194486,-5.74242903817,95.52594949038391
0.13,25.2458682369253,-5.867139778261441,97.60052660395321
0.14,25.78328204813152,-5.992034747985768,99.67816839807648
0.15,26.321525530935123,-6.117122533389322,101.7590177025952
0.16,25.290423357432097,-5.8774943882672215,97.77277669983249
0.17,24.2576896992554,-5.637487086106956,93.78022837732141
0.18,23.223160953648055,-5.397062605627809,89.78074024680339
0.19,22.187079369508616,-5.156277245473803,85.77524884252033
0.2,21.1495943228366,-4.915165720627226,81.76433165208631
0.21,21.225390648940788,-4.932780786813839,82.0573602488051
0.22,21.30123201252925,-4.950406319711799,82.3505629604381
0.23,21.377161577976743,-4.968052350721797,82.6441066604581
0.24,21.453140626025586,-4.985709881488347,82.93784166021494
0.25,21.52913659562325,-5.003371344822844,83.23164207867949
0.26,21.605148982461234,-5.021036623523991,83.52550596619514
0.27,21.68121839818782,-5.038715155738849,83.81959032739412
0.28,21.757407024971094,-5.0564213926032835,84.11413555853827
0.29,21.83361320293142,-5.0741317083612625,84.40874864253288
0.3,21.909836552896387,-5.09184601489312,84.70342811349745
0.31,21.98607935633917,-5.109564842413224,84.99818279160725
0.32,22.062467318616296,-5.127317404846429,85.29349865377063
0.33,22.138884433103232,-5.145076742253193,85.58892721837712
0.34,22.21531903687754,-5.162840144170341,85.88442339656858
0.35000000000000003,22.29177222811291,-5.180607865813441,86.17999143388452
0.36,22.368321921808906,-5.19839801462839,86.47593254971324
0.37,22.236337892708175,-4.292037727747873,86.86435044538916
0.38,22.314978766969173,-4.3063345638063915,87.1603219848716
0.39,22.393490832055207,-4.320841055884751,87.45640587440039
0.4,22.47186424219865,-4.3355726100791845,87.75261642769694
0.41000000000000003,22.550210054018265,-4.350558011643294,88.04941023598249
0.42,22.628386816534125,-4.365783064469447,88.34629509038228
0.43,22.706381784156516,-4.38125886794044,88.64326845979839
0.44,22.78418385833735,-4.39699738278537,88.94033498049198
0.45,22.861901271201884,-4.4130532482476745,89.23798651573624
0.46,22.939434612884096,-4.429389743925931,89.53583666422577
0.47000000000000003,23.01674816253544,-4.446029254792739,89.83382206859467
0.48,23.093816816153623,-4.462982534784336,90.13189514181279
0.49,23.170631523240424,-4.480264610490931,90.43007044612278
0.5,23.249482425304826,-4.498443176400961,90.73728218343075
0.51,23.28168422753592,-4.506198336358505,90.8653223506429
0.52,23.31355785992894,-4.514329315929064,90.99334178663483
0.53,23.34510720580835,-4.5228575799485835,91.12140594594725
0.54,23.376308539771873,-4.5317886350800975,91.24945399819914
0.55,23.407140855375943,-4.541143834635511,91.37745918975583
0.56,23.437602443491958,-4.550956234023628,91.50548064613433
0.5700000000000001,23.46769514252609,-4.561222002814146,91.63352204224233
0.58,23.497385734840115,-4.571967538116358,91.76151444069374
0.59,23.526682541124572,-4.583231721804761,91.88955038726743
0.6,23.555584168862858,-4.595006733738133,92.01760533841681
0.61,23.584054930276334,-4.607321873680483,92.14559376513014
0.62,23.612112067815637,-4.620221569464977,92.27363440567309
0.63,23.63975105747469,-4.633693397667008,92.40166949418496
0.64,23.666940651898592,-4.647790961789484,92.52965373399395
0.65,23.69373601590451,-4.66251139929289,92.65774293008693
0.66,23.72008026399976,-4.677885213024908,92.7857507722223
0.67,23.745982956928007,-4.693969975609792,92.91375850526558
0.68,23.771496374280375,-4.710739225050809,93.0418552471617
0.6900000000000001,23.796575562950387,-4.728237676173499,93.16989616706294
0.7000000000000001,23.821236229698375,-4.74649262652091,93.29791243177772
0.71,23.84546588156222,-4.7655244271502095,93.42581690190327
0.72,23.869282304001302,-4.785408242932862,93.55370163279771
0.73,23.89278016814636,-4.806091813287328,93.68173051916523
0.74,23.91590330820501,-4.827631659817773,93.80968859979116
0.75,23.938660092436127,-4.850050117277086,93.93752712839243
0.76,23.961087559588535,-4.873374992954213,94.06529611908678
0.77,23.98318603499944,-4.8976745783701086,94.19295892749993
0.78,24.005076461528567,-4.922892535495855,94.3207290957746
0.79,24.02671561407327,-4.949083642135095,94.448375414228
0.8,24.048138146379035,-4.976268307110165,94.57588599525064
0.81,24.069368096418156,-5.004511418388315,94.70325276544982
0.8200000000000001,24.09052175433458,-5.033748636321941,94.830632402874
0.8300000000000001,24.111599000893467,-5.064033789448888,94.95789491641577
0.84,24.13262454772673,-5.095373735336789,95.08493198424284
0.85,24.153675146027034,-5.127783414939738,95.21182047496603
0.86,24.17481308117616,-5.161324235618139,95.33862414133475
0.87,24.19610118199418,-5.195895169556706,95.46523139963038
0.88,24.217594152070856,-5.231545927535736,95.59164528045127
0.89,24.23933585518519,-5.268266627125965,95.71776126709527
0.9,24.26142106440481,-5.306108635917866,95.84370414689582
0.91,24.283943068648405,-5.344952840807415,95.96944547290845
0.92,24.30694505622585,-5.384827149128633,96.09488899062238
0.93,24.330491647526024,-5.42570314775309,96.21996651757705
0.9400000000000001,24.354693284072397,-5.467611701716681,96.34481166180345
0.9500000000000001,24.37964042718,-5.510406327822219,96.46937774436174
0.96,24.40537763494371,-5.554089172187366,96.59353621537758
0.97,24.431991575720392,-5.5986087939711,96.71728478590335
0.98,24.459580500555795,-5.643940425294856,96.84067868996362
0.99,24.48821992554717,-5.689969405968306,96.96366197552297
1.0,24.519676326257077,-5.737022017620001,97.09274206017732
1.01,24.518405299653217,-5.776747770077838,97.0901953240285
1.02,24.518377921295897,-5.816914090441921,97.08705333692828
1.03,24.519654579290354,-5.857437269539241,97.08326982954134
1.04,24.522299701217946,-5.8981928273430935,97.07883344610848
1.05,24.526348931705563,-5.939092633005123,97.07374721870947
1.06,24.53166092437834,-5.980095818316476,97.06805699515401
1.07,24.538495901045195,-6.0209957245185795,97.06169950249692
1.08,24.54648918246302,-6.061870288389892,97.05478444248588
1.09,24.55600134311894,-6.102429150182224,97.04721801631462
1.1,24.567103735320607,-6.1424756393883255,97.0389594484881
1.11,24.579816115681894,-6.181882009690142,97.03005075566284
1.12,24.594129088807588,-6.220473082982908,97.02050198461487
1.1300000000000001,24.610023939257456,-6.258105140983275,97.01032157147644
1.1400000000000001,24.62747160022186,-6.294624257746188,96.99954388174166
1.1500000000000001,24.646421748743567,-6.32988733463276,96.98817118243515
1.16,24.666794813998976,-6.36371725276994,96.97618897537873
1.17,24.68852514728579,-6.3959828179883536,96.96366515004354
1.18,24.71152625136326,-6.4265467907557845,96.9506630604026
1.19,24.735688248136178,-6.455278927097394,96.93721876703954
1.2,24.760866469126515,-6.482062029449409,96.92328921535318
1.21,24.7869249473878,-6.5067760199173605,96.90894182075229
1.22,24.813727289596176,-6.529340844040202,96.89427643691158
1.23,24.84110273052766,-6.5496810465420365,96.87931611011322
1.24,24.868875484703025,-6.567741822600762,96.86410632006012
1.25,24.89684401614115,-6.58348807412417,96.84863313832821
1.26,24.924842065861107,-6.596907841001073,96.83302795767868
1.27,24.952660868923275,-6.60801459812884,96.81728481813114
1.28,24.980131756605502,-6.616853181852029,96.8015509487144
1.29,25.00702827965212,-6.623482071099435,96.78575926793306
1.3,25.033168524621132,-6.627990737161686,96.76993058477794
1.31,25.05839745375589,-6.630504165907459,96.75420468919052
1.32,25.08254552655758,-6.631165009758965,96.73859231985605
1.33,25.105466322951383,-6.630142182903805,96.72312009107917
1.34,25.127000103329273,-6.627623317955978,96.70771372164319
1.35,25.14708724339385,-6.62382237927222,96.69246966074151
1.36,25.1656524527213,-6.618971719980205,96.67741637433402
1.37,25.182646737997636,-6.613312782455493,96.66251324273614
1.3800000000000001,25.1980436724561,-6.607097699104349,96.64773158027043
1.3900000000000001,25.211901789071344,-6.600578702860204,96.63301104174715
1.4000000000000001,25.224291455035182,-6.594014555997375,96.61837557651357
1.41,25.23531988756406,-6.58765000002403,96.60375801903876
1.42,25.24516013911951,-6.5817211053252,96.58917852764432
1.43,25.253995941245343,-6.5764347921704545,96.57453216977682
1.44,25.262047849677273,-6.571968573378545,96.55969924488565
1.45,25.269564117038552,-6.568474638593706,96.54461069817347
1.46,25.276887463681792,-6.56603671678147,96.52916904952109
1.47,25.28432804114464,-6.564714201624762,96.51331025849693
1.48,25.292235372462034,-6.564501277501845,96.49695749001174
1.49,25.300970439942063,-6.5653301090480385,96.4800341755491
1.5,25.31186618389274,-6.567301074547379,96.46625350625851
1.51,25.304768407515493,-6.5654312321316315,96.37619924763487
1.52,25.299516751014448,-6.563982573526958,96.28522608344102
1.53,25.29639932172362,-6.562606135535615,96.19321745272161
1.54,25.29569146446902,-6.560891220241301,96.10018560957397
1.55,25.29761213540661,-6.558364512534307,96.00616348034623
1.56,25.302301032102744,-6.554493226881178,95.9111645300124
1.57,25.30974539525932,-6.5486809853002885,95.81494892054164
1.58,25.319968974135076,-6.540322965977363,95.71777845876514
1.59,25.33285106438896,-6.528784878311814,95.61979597911032
1.6,25.348122463642817,-6.513417232506301,95.5210126439258
1.61,25.36537384730485,-6.493575069026331,95.42136821733263
1.62,25.38418949525302,-6.468674094694503,95.32126071529342
1.6300000000000001,25.40397701269669,-6.438168518552673,95.22088486301197
1.6400000000000001,25.424008171251803,-6.401582471296856,95.12037433204458
1.6500000000000001,25.443433195776002,-6.358532669280622,95.01982558784366
1.6600000000000001,25.461398264730818,-6.3087771198297995,94.91970201903086
1.67,25.47692000362113,-6.25219925334616,94.82028688951927
1.68,25.488898918235986,-6.188827555232843,94.72165803898181
1.69,25.49625574976928,-6.118875698149385,94.62411605563948
1.7,25.49792992493503,-6.042750981756398,94.52806651700215
1.71,25.49282808297272,-5.961037856131561,94.43370547091618
1.72,25.479890607716904,-5.87451433027939,94.3411430058839
1.73,25.458180897354936,-5.784158750768647,94.25060965671342
1.74,25.426897387554916,-5.691137178957607,94.16236406137138
1.75,25.38533414434304,-5.596770406524814,94.07640538293445
1.76,25.332966313274763,-5.502524403144104,93.99267363652856
1.77,25.26953470507241,-5.409995838799894,93.91125027842273
1.78,25.19499495275003,-5.320859399055373,93.83206447468574
1.79,25.10957037209321,-5.236835634666833,93.75501711147615
1.8,25.013740007446465,-5.15964031479058,93.67988039809367
1.81,24.908274660958412,-5.090943757685762,93.60641258254378
1.82,24.794164021012076,-5.032304082032794,93.53408723901103
1.83,24.67267531680147,-4.985132630989624,93.46236961007637
1.84,24.545384374613555,-4.950655978077641,93.39091327067148
1.85,24.414065332973063,-4.929850621102776,93.31926486331815
1.86,24.280661831859955,-4.92340291077174,93.24691259933499
1.87,24.147251486610458,-4.931676424187336,93.17334407270293
1.8800000000000001,24.015973018557858,-4.954683527914755,93.09798559035258
1.8900000000000001,23.88896833954436,-4.992066942378009,93.02021623594221
1.9000000000000001,23.7682930648897,-5.043085903423362,92.93930070024668
1.9100000000000001,23.656021369674,-5.1066677122956925,92.85505301892903
1.92,23.553983762834203,-5.1813809602699425,92.76708784453376
1.93,23.463769677888834,-5.2654826891677144,92.67508953478634
1.94,23.38669668762194,-5.35697160974437,92.57892016039939
1.95,23.323723369738225,-5.4536360895580716,92.47847295126363
1.96,23.275349575956007,-5.553106606301764,92.37343685450377
1.97,23.241759512800925,-5.65296896629259,92.26394484921907
1.98,23.22276301755372,-5.750834388824488,92.15038349186707
1.99,23.21763937640644,-5.844382064638874,92.0327572948932
2.0,23.225819833315285,-5.931592667386067,91.913231776456
2.0100000000000002,23.233379451270586,-6.007674763608531,91.74374897080403
2.02,23.250813527630598,-6.073896265173979,91.57184861126768
2.0300000000000002,23.276205669739355,-6.1290652026092936,91.397994975845
2.04,23.307527245312627,-6.172408623066219,91.22280236199698
2.05,23.34267169772816,-6.203577975256545,91.04681924947648
2.06,23.379557449606782,-6.222657479971739,90.87055340369609
2.07,23.416230234384486,-6.230144001053745,90.69450389393951
2.08,23.450966561465336,-6.226913906848692,90.51921861922139
2.09,23.482280322562552,-6.214147589886293,90.34501872746667
2.1,23.508985129343266,-6.193254778824056,90.17198164029935
2.11,23.530210529735886,-6.165781214702262,89.9998865864965
2.12,23.54569306099046,-6.133373602468708,89.82917837963124
2.13,23.5554593744648,-6.097600164081913,89.65978491512463
2.14,23.559859390349466,-6.059871168799435,89.49136975146757
2.15,23.559630927212336,-6.021365534522664,89.32376710250585
2.16,23.555663610631072,-5.982919190471506,89.15635328545513
2.17,23.549159990124874,-5.9450387724405225,88.98911015288306
2.18,23.541294725071285,-5.9077750992663915,88.82160849560047
2.19,23.53326072755887,-5.870781156037472,88.65374206985675
2.2,23.52604806300866,-5.833300408259252,88.48531462313224
2.21,23.520240067544812,-5.794188630484032,88.31567133270312
2.22,23.51617499653867,-5.752089643224818,88.14477765523017
2.23,23.513911914259083,-5.705497108174097,87.97329286558217
2.24,23.512876070353432,-5.652847817887089,87.80145969906734
2.25,23.511952496554112,-5.592678029970653,87.62950594596536
2.2600000000000002,23.509549249181074,-5.523751899318279,87.45776132712545
2.27,23.503683690391032,-5.445269259269233,87.28686343840462
2.2800000000000002,23.492075637341568,-5.356932274342342,87.11765489382938
2.29,23.472115391413165,-5.259031627649182,86.95054441900173
2.3000000000000003,23.44122993784071,-5.1525742306500675,86.78634127885141
2.31,23.396882038249025,-5.039268671180071,86.62550382817308
2.32,23.33679638759991,-4.92151456845516,86.46828405164905
2.33,23.259216591815424,-4.802371334515771,86.3150025356805
2.34,23.163072297498367,-4.68543715607804,86.16599635902692
2.35,23.048001361865744,-4.574672273857841,86.02112340346277
2.36,22.914483686934453,-4.474209420939028,85.8798760234001
2.37,22.763821883875515,-4.388124158007798,85.74108205493748
2.38,22.598582315998485,-4.320291176229384,85.60456759574544
2.39,22.422047947691834,-4.274034346710886,85.46930054479911
2.4,22.238231148521894,-4.251946090832279,85.33392334535856
2.41,22.051799458313933,-4.25569992174546,85.1970797506298
2.42,21.867880872333593,-4.2858998937194235,85.05760757329757
2.43,21.69171479593464,-4.341981806492694,84.91420221525912
2.44,21.528325187441894,-4.422142029288947,84.76522353904853
2.45,21.3824261306029,-4.523456219863119,84.60957583899115
2.46,21.25821343569026,-4.641958277426816,84.44690205189288
2.47,21.15886211804317,-4.7727945367874405,84.27667459949575
2.48,21.086415331887643,-4.910459774775996,84.09841604431816
2.49,21.041776037810386,-5.0491089199518395,83.91238840485623
2.5,21.023461593086047,-5.182600123345502,83.71489961884258
2.5100000000000002,21.051201313512827,-5.310291580428181,83.58939004407563
2.52,21.101788796255537,-5.42240016500689,83.45813745023698
2.5300000000000002,21.171441189446128,-5.514748155250647,83.32258372108244
2.54,21.255609690276067,-5.58421949710451,83.18429638415707
2.5500000000000003,21.349206327442943,-5.62890041046296,83.04469686306008
2.56,21.44684246783894,-5.648126817473934,82.90468659901649
2.57,21.543477383685854,-5.642533256619499,82.76592034102242
2.58,21.634448095935333,-5.613911032916062,82.62964392190852
2.59,21.715747057044346,-5.565003210848878,82.49667122244433
2.6,21.78684865503666,-5.499882071629918,82.3776194005578
2.61,21.843747069889396,-5.422016246036442,82.26535391694918
2.62,21.884814339215637,-5.335288576360931,82.15753198530524
2.63,21.910006263070397,-5.243544750059071,82.05379230915104
2.64,21.92042380508905,-5.150234420692456,81.95450054064014
2.65,21.91751980651626,-5.058044580938221,81.85857602109783
2.66,21.903255609437377,-4.968860994828123,81.7651423993644
2.67,21.879826905330646,-4.88371002050998,81.67362180402668
2.68,21.8492985904401,-4.802776721938739,81.58350300638463
2.69,21.81334165939958,-4.725532326575233,81.49437506026472
2.7,21.77303030902648,-4.650935609270716,81.40597480144436
2.71,21.728727851742242,-4.57770343008041,81.31829695429087
2.72,21.680035268763493,-4.504607854633052,81.23153479809298
2.73,21.62584079785121,-4.4307634419409085,81.14603981666673
2.74,21.564461996697155,-4.355898745018181,81.0622462994544
2.75,21.49389173602586,-4.280570652249107,80.98064045440807
2.7600000000000002,21.412092561943158,-4.206275894981047,80.90165820970489
2.77,21.317333377821534,-4.135471007186757,80.82561716462364
2.7800000000000002,21.208504289953147,-4.071467723098244,80.7525651841358
2.79,21.085467120623232,-4.018229194356247,80.68237469843785
2.8000000000000003,20.949214854696304,-3.98004205381549,80.61447219304291
2.81,20.802069174566185,-3.961150302084154,80.5480087443695
2.82,20.6476929458113,-3.965316987027978,80.48186722049873
2.83,20.49092226231963,-3.9953852042831537,80.41454330911166
2.84,20.337585804465995,-4.052913320268091,80.34448295553402
2.85,20.194120995815474,-4.137851586449138,80.27006662560397
2.86,20.067076821897356,-4.248346901434718,80.18959480744917
2.87,19.962703585346333,-4.380724223129185,80.10179061770265
2.88,19.886347087282587,-4.529577777923696,80.00556712848368
2.89,19.842000396566547,-4.688051897337403,79.90025593284935
2.9,19.83488826596457,-4.848946539678932,79.79717228998233
2.91,19.80648987358498,-4.990197075836637,79.4694733376632
2.92,19.81075879684745,-5.11644541077191,79.13390200871324
2.93,19.843770945618928,-5.220046807775225,78.79190564971871
2.94,19.89978714410757,-5.29461772066716,78.44536093257732
2.95,19.97160113129972,-5.335498524728737,78.0963408216904
2.96,20.051113557901466,-5.34010841817263,77.74712537875914
2.97,20.129913015040046,-5.308131236707482,77.4001064803961
2.98,20.199825811682345,-5.241463206926624,77.0572851131178
2.99,20.253486935005288,-5.14401805317312,76.72011100945384
3.0,20.312419044464207,-5.027744232870067,76.49595267932679
3.0100000000000002,19.817470058497076,-4.770585334717115,74.24051322085353
3.02,19.29276761848959,-4.502092467035791,71.98867777905168
3.0300000000000002,18.73901115745735,-4.229696139173091,69.74400840189693
3.04,18.157633544332477,-3.960043699294858,67.50581370031732
3.0500000000000003,17.551367618424393,-3.6986576782665708,65.2726093999422
3.06,16.92443352163141,-3.44984973712919,63.04468635925691
3.0700000000000003,16.280891750524656,-3.2162715350189304,60.81981056342132
3.08,15.625101219633148,-2.999242740871181,58.59687786128342
3.09,14.961240168935406,-2.7988687667673213,56.375984135984844
3.1,14.292067956701,-2.614201601252006,54.154909536435255
3.11,13.620297606018955,-2.4440533536169955,51.93461079969538
3.12,12.946979495532856,-2.2869523230333986,49.71390622619254
3.13,12.273080342984906,-2.14192781784229,47.49369339623056
3.14,11.59847317758474,-2.0084450693399445,45.27332305778055
3.15,10.923472270177172,-1.8868039455007994,43.0534951079241
3.16,10.248154493598458,-1.7779722355142336,40.83368377466759
3.17,9.573659935791845,-1.6834042775221598,38.614050963906884
3.18,8.901621579070614,-1.6048165272593984,36.39385225608146
3.19,8.234971925742471,-1.5435870021684885,34.172569902881435
3.2,7.577375769404162,-1.5005594250887797,31.94918877645562
3.21,6.933370481422256,-1.4753062449116794,29.72269015830218
3.22,6.307778107058878,-1.4661451269282442,27.491961557774395
3.23,5.705319441359046,-1.4695863913250427,25.25595635250234
3.24,5.1302183752420945,-1.480713279135871,23.014601102431907
3.25,4.585286890650448,-1.4931314831687044,20.767386309941973
3.2600000000000002,4.0715302467662475,-1.4993230196318656,18.513787685844633
3.27,3.5883874761296743,-1.4914788657559614,16.25550913177783
3.2800000000000002,3.1328841996183474,-1.4618870647280409,13.99378997306629
3.29,2.6998257729034547,-1.4036760605791883,11.729944008874257
3.3000000000000003,2.265731601387144,-1.3076047881315709,9.401843070044148
3.31,2.1519887686440557,-1.2469604834785828,8.286288529033769
3.3200000000000003,2.0363768396418687,-1.1479838106722329,7.1747598384605045
3.33,1.909823918543391,-1.0122121898283902,6.069467459909706
3.34,1.7639121389853332,-0.8436055799717539,4.972364058287125
3.35,1.5915063259270945,-0.6482434910979747,3.884945042361116
3.36,1.3872780979098618,-0.4338450052350848,2.808131605630074
3.37,1.148052736690185,-0.20910638726426944,1.7422122330036949
3.38,0.873003269842189,0.01689099238523971,0.6869885544719341
3.39,0.5635331492191088,0.23542983171122395,-0.35842733536631327
3.4,0.21350427387966364,0.44098825130169084,-1.4322387818300713
3.41,0.015758464995611676,0.5835934729684211,-1.8100093190560371
3.42,-0.20207142993078045,0.700158938742865,-2.18360425288711
3.43,-0.43331863334769555,0.7879924194966708,-2.5549272313621905
3.44,-0.6712809493394168,0.8462249319384056,-2.925771228098646
3.45,-0.9096890550855328,0.8756169714288731,-3.297709180272639
3.46,-1.1430630672533755,0.8782348089237131,-3.6720389797332595
3.47,-1.3669232244474656,0.8570683737435245,-4.0497498571629125
3.48,-1.5778551462299726,0.8156285024724045,-4.431494948120565
3.49,-1.7734665149513593,0.7575952519745981,-4.817663757366029
3.5,-1.952230803757578,0.6865510542141865,-5.2084396187124105
3.5100000000000002,-2.113268983071219,0.6057877951075644,-5.60385364504368
3.52,-2.256138128950585,0.5182526366437241,-6.0038657720681545
3.5300000000000002,-2.3805943925857607,0.4266086094337531,-6.408373857032982
3.54,-2.486445340033545,0.3332935565191698,-6.81726371862093
3.5500000000000003,-2.573715854746636,0.24103046677002576,-7.2303687684622275
3.56,-2.6493996738643495,0.1584307787693578,-7.645758593808032
3.5700000000000003,-2.716595142896157,0.08340862389081252,-8.062543042668791
3.58,-2.7672547995035366,0.010141364381471701,-8.482985935855403
3.59,-2.799459298639711,-0.058088145457183035,-8.907373075443966
3.6,-2.812136613657252,-0.11677606412501677,-9.33571489619316
3.61,-2.8055614121420387,-0.1605503923350588,-9.767621403656795
3.62,-2.781698596742836,-0.1836915498790709,-10.20222961196669
3.63,-2.7444150602435076,-0.18075341300014214,-10.638229651300877
3.64,-2.699363983528991,-0.1472717701826349,-11.073886335223644
3.65,-2.653719566321021,-0.08038781686318927,-11.507174956199675
3.66,-2.615664409120764,0.02064083050696605,-11.935936965633076
3.67,-2.5937243080851844,0.1541074289709745,-12.358048081461009
3.68,-2.596035525732291,0.3158348768866509,-12.77166534300299
3.69,-2.629586063289867,0.4992816856807085,-13.175380808381858
3.7,-2.699545623025728,0.6960022392332927,-13.56836568285419
3.71,-2.8087467429109707,0.8962647698772495,-13.950472792718747
3.72,-2.9573575082226413,1.0897957613699383,-14.322250032274232
3.73,-3.142913052846541,1.2666626624526272,-14.684925308796121
3.74,-3.3603771425369375,1.4179750063153234,-15.040361332980556
3.75,-3.6026277205389454,1.5366309951444816,-15.390828261506954
3.7600000000000002,-3.8610288677181037,1.6178179832463893,-15.738851033711537
3.77,-4.12609673259062,1.6593191342393039,-16.086987155565147
3.7800000000000002,-4.388390550800209,1.661515908324623,-16.437614735134456
3.79,-4.639034660131379,1.6273099232472734,-16.792921907202093
3.8000000000000003,-4.87044297812183,1.5616778885209914,-17.15457569908912
3.81,-5.076751230805166,1.4711590522657039,-17.52370414908893
3.8200000000000003,-5.254074802935447,1.3632341339032414,-17.90086677674823
3.83,-5.400587503386374,1.245690888253315,-18.2860724241738
3.84,-5.516395357600369,1.1260303370041878,-18.67884743982197
3.85,-5.60326538594284,1.0109964001524565,-19.078300624731817
3.86,-5.6642000014556135,0.9061480546384987,-19.483239192955075
3.87,-5.70311571293498,0.8157976047348218,-19.8925036335424
3.88,-5.7242895059954115,0.7428883888455674,-20.304814915917778
3.89,-5.732010479651096,0.6891356374745992,-20.71896462188178
3.9,-109.45492370070072,24.760846182550317,-422.1332955489707
3.91,-5.620759103307669,0.6174846403680955,-21.154632472415166
3.92,-5.502694685861045,0.5977525657024441,-21.152673008788238
3.93,-5.384425452361147,0.5967128891813314,-21.14975717417396
3.94,-5.268135065477608,0.6136764798495404,-21.145361326177674
3.95,-5.155832101762521,0.6480366778494138,-21.139002185337137
3.96,-5.049535796326346,0.6992623659740695,-21.130189191778165
3.97,-4.951431682922075,0.7667990744843647,-21.11839035533864
3.98,-4.863963920734813,0.8498997503700658,-21.103018063130076
3.99,-4.789842169307507,0.9474177090075317,-21.083439863591614
4.0,-4.731953499554191,1.0575997443914587,-21.059013873031777
4.01,-4.693183893451916,1.1779181288026754,-21.029144871020204
4.0200000000000005,-4.676167742461362,1.3049756012931737,-20.993354789198463
4.03,-4.682994316356124,1.4345084577596032,-20.951358452578347
4.04,-4.714907540668089,1.5615003961788405,-20.9031344151624
4.05,-4.772037896406362,1.6804059106771356,-20.848980921700413
4.0600000000000005,-4.853203083091506,1.7854680543570003,-20.789548427038486
4.07,-4.955807312631368,1.8711031292817526,-20.725842591712688
4.08,-5.075858746825079,1.9323161984979995,-20.659194869576655
4.09,-5.208112070035701,1.9651061259255316,-20.59120135417194
4.1,-5.346329424868617,1.9668188934622965,-20.523634107850185
4.11,-5.483640349678347,1.9364125777280663,-20.458332176348044
4.12,-5.612970623735644,1.8746057262021647,-20.397081767468034
4.13,-5.7275027042789715,1.7838925211352847,-20.341496221666514
4.14,-5.82112717374427,1.6684212449416194,-20.292906533689028
4.15,-5.88884564062087,1.5337459120740524,-20.25227211119238
4.16,-5.927090631322633,1.3864730105481318,-20.22011907469446
4.17,-5.933936665874568,1.2338348028475186,-20.196511288070397
4.18,-5.909192159710036,1.0832256468484904,-20.18105436848404
4.19,-5.854341627116298,0.9417453918782388,-20.172938066973437
4.2,-5.772414424278354,0.8157776862869269,-20.170995420558544
4.21,-5.667709712659173,0.7106465017272476,-20.173794547476806
4.22,-5.545474333120618,0.630365856590565,-20.179736959431636
4.23,-5.41153609399701,0.5775032372899727,-20.187160623138187
4.24,-5.271926553981079,0.5531433707821096,-20.194439702399198
4.25,-5.132529111601639,0.5569651976784789,-20.20007098599106
4.26,-4.998780605361031,0.5874014374020231,-20.202741516231672
4.2700000000000005,-4.875438295407762,0.6418583210513296,-20.201375695012615
4.28,-4.766424747404573,0.7169708593016393,-20.195160105118592
4.29,-4.67475370932433,0.8088687755008062,-20.18354674706153
4.3,-4.604059189257255,0.9137674690813695,-20.172126799036285
4.3100000000000005,-4.554987964231334,1.0273576455543731,-20.1585202080749
4.32,-4.527091352139832,1.145373036368192,-20.13920651335829
4.33,-4.520227691632443,1.2639874390297603,-20.11445175835479
4.34,-4.533736298289485,1.3796618476016205,-20.084639052893
4.3500000000000005,-4.566540254231589,1.4891629355495761,-20.050240870691344
4.36,-4.617224114502663,1.5895532360299054,-20.011799532807785
4.37,-4.684080560560692,1.6781685583696575,-19.96991648864589
4.38,-4.765127059506411,1.7525981802174904,-19.92524918969161
4.39,-4.858098925763801,1.8106809876492904,-19.878513111993335
4.4,-4.96042954794918,1.8505270894786627,-19.830485571816304
4.41,-5.069231104845115,1.870568676249924,-19.7820076626314
4.42,-5.1812896558327255,1.8696387046875076,-19.733980806020938
4.43,-5.293086895893854,1.8470704845438002,-19.687355152103194
4.44,-5.400858289132915,1.8028062979801076,-19.64310802864937
4.45,-5.500691913042089,1.7375005930729963,-19.60221218443942
4.46,-5.588667559715727,1.6526018416153458,-19.565594898005056
4.47,-5.661029988067358,1.55039803630982,-19.534090613888143
4.48,-5.714385066874282,1.4340133063869505,-19.508389965041374
4.49,-5.745904076752678,1.3073475602863391,-19.488990767907655
4.5,-5.753518828961831,1.1749567132806047,-19.47615486530252
4.51,-5.73608959119432,1.041875496367115,-19.469875200272977
4.5200000000000005,-5.693529179906526,0.9133927655740142,-19.469857183837927
4.53,-5.626869936076342,0.7947937290452896,-19.475516822528483
4.54,-5.538265427437187,0.6910836774019514,-19.48599683606547
4.55,-5.430921260128282,0.6067181020796474,-19.500200737458908
4.5600000000000005,-5.308959957897563,0.5453538458920354,-19.516842703545656
4.57,-5.177225560118318,0.5096425890901606,-19.53451050257815
4.58,-5.041042208856542,0.5010823936820321,-19.55173684638895
4.59,-4.905943188601362,0.5199360985944478,-19.567074378136443
4.6000000000000005,-4.777387134713138,0.5652232495631168,-19.579169572417523
4.61,-4.6604850289840245,0.6347834829452423,-19.586829561521842
4.62,-4.559749958949932,0.7254065832157135,-19.589079074409582
4.63,-4.478891726990413,0.8330198891852487,-19.585202344288454
4.64,-4.420663644461667,0.9529124226737369,-19.574769282111692
4.65,-4.38676717742179,1.079986018214134,-19.55764512387349
4.66,-4.377823395449509,1.2090127969435729,-19.533982432954723
4.67,-4.393400677405882,1.3348808936833174,-19.504199114095805
4.68,-4.432095857897385,1.452816211026408,-19.46894416841319
4.69,-4.491658772262683,1.55856842584781,-19.429054328270396
4.7,-4.569146121354625,1.6485526872537344,-19.38550576039735
4.71,-4.661093254156413,1.7199448133251378,-19.339363922594277
4.72,-4.763689708128134,1.7707310049911018,-19.291735170752926
4.73,-4.8729505657363825,1.7997144511310248,-19.243722037420348
4.74,-4.9848696633977685,1.8064866310845051,-19.196385316315183
4.75,-5.095553245377781,1.7913725610054498,-19.150712767319654
4.76,-5.201328655970788,1.7553571511859385,-19.10759541253055
4.7700000000000005,-5.298829228682828,1.7000022730067088,-19.067810545329184
4.78,-5.385056471778154,1.6273616956443053,-19.032010739662834
4.79,-5.457424691701746,1.53989761446383,-19.000717308814295
4.8,-5.513790518442164,1.4404039420513715,-18.974317265318803
4.8100000000000005,-5.552475934625872,1.3319371972878766,-18.95306150060993
4.82,-5.5722857861028725,1.217750614475266,-18.93706447249126
4.83,-5.572524729178353,1.1012325182407385,-18.926302740544344
4.84,-5.553011980932764,0.9858424910625372,-18.92061568588107
4.8500000000000005,-5.514096965269393,0.8750453480412104,-18.919705245869853
4.86,-5.456671628232821,0.7722363297114769,-18.923137178347854
4.87,-5.38217551559531,0.6806573303324934,-18.93034476837458
4.88,-5.292589650325802,0.6033041722941791,-18.94063596867529
4.89,-5.1904143555036315,0.5428266153274387,-18.95320512861375
4.9,-5.078626718397166,0.5014253173899873,-18.967150172994323
4.91,-4.960614889080436,0.4807508782476529,-18.98149564884744
4.92,-4.840088070817038,0.48181189341147823,-18.99522151996057
4.93,-4.720962147652192,0.5048995463118592,-19.0072972736148
4.94,-4.60722550017481,0.5495354336329368,-19.016719759244356
4.95,-4.502788886799889,0.6144492528938817,-19.022553360074046
4.96,-4.411326514607735,0.6975913005499425,-19.02397035720519
4.97,-4.336117954013876,0.7961820263192609,-19.02028885540387
4.98,-4.279898868385008,0.9067989067451477,-19.011006191351182
4.99,-4.244730297044688,1.025498159633162,-18.995825451076847
5.0,-4.231894768256959,1.1479662576929917,-18.974673253259912
5.01,-4.241826281988982,1.269693953278389,-18.947707487040546
5.0200000000000005,-4.274079118379115,1.386163803699262,-18.915314081434254
5.03,-4.327338058224741,1.493041108077671,-18.87809294051733
5.04,-4.399469937710507,1.5863578320330436,-18.836833584561166
5.05,-4.487613872419632,1.6626795017854894,-18.792481808612216
5.0600000000000005,-4.588305088926678,1.719246203529217,-18.746099199122767
5.07,-4.697625305542009,1.7540805351582822,-18.698817763265073
5.08,-4.811371159958796,1.7660575564776093,-18.651792167251315
5.09,-4.925231401390867,1.7549342643473858,-18.606152133085015
5.1000000000000005,-5.034963419118175,1.7213385808460497,-18.562957433434228
5.11,-5.136560214140863,1.6667202923749957,-18.523157639000548
5.12,-5.226399987338221,1.5932683418797167,-18.48755837933061
5.13,-5.301371805536347,1.503800749033275,-18.45679543276866
5.14,-5.35897389270214,1.4016342398326573,-18.43131711241436
5.15,-5.397380692999135,1.2904412103410379,-18.411375491102152
5.16,-5.415479182065698,1.1741017240840779,-18.397025878418006
5.17,-5.412875391783229,1.056557849320113,-18.388133872789084
5.18,-5.389873935808958,0.9416761850768072,-18.384388938245582
5.19,-5.347434270999946,0.8331234602647624,-18.38532298870749
5.2,-5.287108318323606,0.7342586811455618,-18.390333194825775
5.21,-5.21096402001844,0.6480437909735243,-18.398707040309798
5.22,-5.121499461688278,0.5769735309715636,-18.40964874057557
5.23,-5.021551648221927,0.52302410765588,-18.42230591722212
5.24,-4.914203353061598,0.4876194488032488,-18.43579571674272
5.25,-4.802690663253969,0.4716133382707746,-18.449229797567572
5.26,-4.690313013554731,0.47528548216987654,-18.461737838212613
5.2700000000000005,-4.580346626300579,0.498349635179541,-18.472489440428173
5.28,-4.475963366194296,0.5399737691409948,-18.480713914446866
5.29,-4.380152302329187,0.5988074594208157,-18.485718926417196
5.3,-4.295646750495764,0.673019789443329,-18.486907097274887
5.3100000000000005,-4.224856189796919,0.760346181899765,-18.483790809991568
5.32,-4.16980320395454,0.8581437957593143,-18.476005200782513
5.33,-4.132066933165156,0.9634561434065051,-18.46331891433226
5.34,-4.112734193509814,1.0730869696466827,-18.445642320744604
5.3500000000000005,-4.1123599299821105,1.183683029623365,-18.42303278409907
5.36,-4.130939407695342,1.2918250975019157,-18.395696621209545
5.37,-4.167894008018578,1.3941256653603649,-18.36398630038845
5.38,-4.222073131867322,1.487330874127874,-18.328394381164184
5.39,-4.291773688144202,1.5684247411002965,-18.289542125222987
5.4,-4.37477849389277,1.6347307625387817,-18.248163433549863
5.41,-4.468413837033226,1.684007577499591,-18.205084222353072
5.42,-4.56962571807466,1.7145343112854805,-18.161197585541515
5.43,-4.675073057846897,1.7251811755953819,-18.117435452063305
5.44,-4.7812352063500665,1.7154614664027537,-18.07473765859237
5.45,-4.884530048428502,1.6855614766254927,-18.03401960494209
5.46,-4.9814381722702885,1.6363461764177307,-17.996139793113144
5.47,-5.068628080908393,1.5693390748699243,-17.96186864420368
5.48,-5.143077059341783,1.486676235273256,-17.93185998825297
5.49,-5.202181895227269,1.3910362799571072,-17.90662661783726
5.5,-5.243855649082073,1.285547680826071,-17.886520811244026
5.51,-5.266604234020657,1.1736779463608085,-17.87172116511886
5.5200000000000005,-5.2695807157919035,1.059109900464941,-17.862225962653127
5.53,-5.2526145102205275,0.9456085683594677,-17.857853599230047
5.54,-5.216214109877136,0.8368861997935735,-17.85824996092892
5.55,-5.161543724848945,0.7364704517618015,-17.86290237226455
5.5600000000000005,-5.090375836576952,0.6475815599176211,-17.871159255479174
5.57,-5.005020120797088,0.5730220620430235,-17.882255090429364
5.58,-4.908235043585277,0.5150859674228097,-17.895338741338247
5.59,-4.803124259201485,0.47548838777178437,-17.909504475716098
5.6000000000000005,-4.693023813874728,0.45531829434585586,-17.92382397451544
5.61,-4.577009028874803,0.45942114062051637,-17.938379818029006
5.62,-4.451142274286937,0.5036132861116627,-17.953315465224176
5.63,-4.339436427330917,0.57121196176554,-17.963210443281827
5.64,-4.24601222514801,0.6577037068846187,-17.967268157940097
5.65,-4.173692822021676,0.7579683631294383,-17.965064093214156
5.66,-4.123994168314454,0.8666171163437338,-17.956528099117826
5.67,-4.097153971534543,0.9783282464276473,-17.94191674311832
5.68,-4.0922476640867105,1.0881710342714268,-17.921763917408562
5.69,-4.107379318711109,1.191863095151149,-17.896816035123038
5.7,-4.139921545290415,1.2859540266819685,-17.867958965513843
5.71,-4.186786415110565,1.3679243284878528,-17.83614203195158
5.72,-4.244693602417682,1.4362001897683028,-17.802307755372624
5.73,-4.310420460336129,1.4900905554701493,-17.767330962870524
5.74,-4.381009266469402,1.5296605098857667,-17.73197276373474
5.75,-4.453919654029968,1.5555580324601128,-17.696851353998497
5.76,-4.527116888231554,1.5688154638242204,-17.662431269282227
5.7700000000000005,-4.599093897391424,1.5706467271546858,-17.629029765288877
5.78,-4.668831814964481,1.562263432154043,-17.59683803857685
5.79,-4.735709187390116,1.5447235395275867,-17.56595378158575
5.8,-4.799373864864125,1.5188292562710761,-17.536420435052804
5.8100000000000005,-4.859595276709292,1.4850802192429033,-17.50826820134239
5.82,-4.916115288689802,1.4436839774864592,-17.481551989939028
5.83,-4.968515733927782,1.3946203891879108,-17.456381815318462
5.84,-5.016118707962768,1.3377480254262843,-17.432942202838856
5.8500000000000005,-5.05792747726604,1.2729420956897601,-17.411499201972887
5.86,-5.092622137571674,1.200247317194957,-17.39239232841249
5.87,-5.118604690998343,1.1200237279317926,-17.37601415852804
5.88,-5.134095036858673,1.033074795723676,-17.362777802981345
5.89,-5.137266894704801,0.9407374190712641,-17.35307633959953
5.9,-5.126411937698054,0.8449250380635882,-17.34723775799062
5.91,-5.100117565422015,0.748116052058849,-17.3454796525287
5.92,-5.057440374806276,0.6532857244048882,-17.347868419218717
5.93,-4.998030265451627,0.5637765647385546,-17.35416728790901
5.94,-4.92233255828501,0.4831500098983281,-17.364138989317755
5.95,-4.8315945489503855,0.41496966129653723,-17.377285325490686
5.96,-4.727885824827423,0.3625813274426969,-17.39287077151327
5.97,-4.614064096145772,0.32889402283404234,-17.409982017006755
5.98,-4.493675064198487,0.31617410829284975,-17.427566199329213
5.99,-4.370798765548637,0.32586952911731826,-17.444481184642157
6.0,-4.249852333543478,0.3584816713020054,-17.45955426855823
6.01,-4.1353656567159085,0.4134923403988241,-17.471644590711
6.0200000000000005,-4.031740651844412,0.48935241841546295,-17.47970608782248
6.03,-3.9430146938057407,0.5835342396442386,-17.482845558413146
6.04,-3.8726419200558073,0.6926436226958927,-17.480372527429804
6.05,-3.823307370179168,0.8125852103340822,-17.47183742269408
6.0600000000000005,-3.7967878235449644,0.93876770593406,-17.457055284444902
6.07,-3.7938648072840824,1.0663371315285248,-17.43611429644354
6.08,-3.814296261688113,1.190421809657718,-17.409368441560677
6.09,-3.856847717976346,1.3063736430839241,-17.377414986322375
6.1000000000000005,-3.919380182729239,1.4099859762300346,-17.341058712113966
6.11,-3.9989778511576386,1.497686508106837,-17.301267297966422
6.12,-4.092108845696229,1.5666701907324319,-17.259060540442977
6.13,-4.194279712240768,1.6148808972462754,-17.213395170181418
6.140000000000001,-4.301937242820049,1.6414433595176638,-17.16764375180612
6.15,-4.410947710703703,1.6462510805816821,-17.1228811739229
6.16,-4.517365130777273,1.6300423945933071,-17.080083337075923
6.17,-4.61759328511839,1.5943017552150665,-17.040090917323308
6.18,-4.708514628066878,1.5411289444141199,-17.00358393245773
6.19,-4.787579828345895,1.4730888158378432,-16.97106758520888
6.2,-4.852856834138902,1.393052778020328,-16.94286907664379
6.21,-4.903040328945444,1.3040431924793463,-16.919144489596487
6.22,-4.9374255037391315,1.2090908280441417,-16.899894120033373
6.23,-4.955852883473196,1.111113718935252,-16.884984011327333
6.24,-4.958631761377469,1.0128225392548404,-16.874171433507733
6.25,-4.946450867107114,0.9166560055133932,-16.867131865389428
6.26,-4.920286799561568,0.8247461364361834,-16.863484759940857
6.2700000000000005,-4.881314595095729,0.738910496457576,-16.86281714928179
6.28,-4.830833507078037,0.6606685309192969,-16.864701855596305
6.29,-4.7702060201211856,0.5912730272113856,-16.868711383635855
6.3,-4.7008171356880695,0.5317526373677313,-16.87442590258325
6.3100000000000005,-4.624054780517077,0.48295563951293874,-16.881435682582055
6.32,-4.541306494759753,0.4455937626683865,-16.889339337688735
6.33,-4.453997948078135,0.4202674768458887,-16.8978269758986
6.34,-4.363545262954905,0.4074811564099823,-16.906410283115413
6.3500000000000005,-4.27145033756054,0.4076408264247267,-16.914673585079083
6.36,-4.179307530245908,0.4210447788831527,-16.92218691384946
6.37,-4.088820175369086,0.44784074310082533,-16.928501145320553
6.38,-4.001805205492386,0.487982684080997,-16.933149397087487
6.390000000000001,-3.9201817979986417,0.5411780574897106,-16.93565312038297
6.4,-3.8459400770798986,0.6068343699735108,-16.935533391385245
6.41,-3.781091106810455,0.684011800307049,-16.93232668099758
6.42,-3.727598602372485,0.7713889211153395,-16.92560456765399
6.43,-3.687297834048945,0.8672452268633936,-16.91499575642356
6.44,-3.661807006768914,0.9694599529087069,-16.90020907299835
6.45,-3.65242847756861,1.0755473281898538,-16.8810568946039
6.46,-3.6600601617173467,1.1827104654200735,-16.857474833417314
6.47,-3.685116107227223,1.2879211816741036,-16.829537495815607
6.48,-3.7274636891783652,1.3880209940677652,-16.79746867126323
6.49,-3.7863836798258363,1.4798392729903642,-16.761644577389
6.5,-3.860556897142417,1.5603223526837695,-16.72258957141451
6.51,-3.9480809018558167,1.626664594770716,-16.680963978219026
6.5200000000000005,-4.046515222671257,1.676437195315632,-16.63754466557799
6.53,-4.152970340645303,1.70770598016527,-16.59324425166191
6.54,-4.264176144568338,1.7191226005307847,-16.548976290973343
6.55,-4.376616518701934,1.7099985332747156,-16.50565482406066
6.5600000000000005,-4.486675652537135,1.680352187080489,-16.464213897045347
6.57,-4.590772825569317,1.6309176351099324,-16.42553554274473
6.58,-4.685504511791915,1.563124555699217,-16.390414219778453
6.59,-4.767779212023911,1.47904092012125,-16.359525385878072
6.6000000000000005,-4.834934899837324,1.3812949972796182,-16.33339978901136
6.61,-4.884841894763404,1.2729710328917827,-16.31240310184795
6.62,-4.9159762360052275,1.157482446644254,-16.296724558716058
6.63,-4.927467358911676,1.0384374900495943,-16.286372670931463
6.640000000000001,-4.919112384605668,0.9194992843115513,-16.28117993771295
6.65,-4.891368089301766,0.8042496833742526,-16.28081306935217
6.66,-4.845309343957578,0.6960605144199596,-16.28479147307387
6.67,-4.782566910272058,0.5979805578673307,-16.292510118444522
6.68,-4.705244862407353,0.5126428466379758,-16.303266462822403
6.69,-4.615824638157273,0.442193315216008,-16.316289550354995
6.7,-4.517059821405299,0.38824407876058153,-16.330770034945502
6.71,-4.41186916362487,0.3518518424741322,-16.345889152429066
6.72,-4.303230661335099,0.3335184483983397,-16.360846090984747
6.73,-4.194084010004344,0.3332135641249949,-16.37488186936363
6.74,-4.087259502260444,0.35041782027004287,-16.38735897761001
6.75,-3.9853614125555796,0.38416571417266304,-16.397609003386776
6.76,-3.8907481912575568,0.43311698018398154,-16.40509003816224
6.7700000000000005,-3.805483773629905,0.49562223286435514,-16.409366812852422
6.78,-3.7313080865631125,0.5697906599154017,-16.410102379391716
6.79,-3.6696241736451816,0.6535558820882066,-16.407057494275847
6.8,-3.621496914755842,0.7447366865504992,-16.400087309742005
6.8100000000000005,-3.587660770584308,0.8410908117178184,-16.389136146444518
6.82,-3.568534208307616,0.9403608119063044,-16.374231014143746
6.83,-3.564236055103697,1.0403117836748392,-16.355475113028632
6.84,-3.574605322098682,1.1387629252082476,-16.333040817587555
6.8500000000000005,-3.599220408491878,1.233611003075115,-16.307163306059895
6.86,-3.637411396898493,1.322854145856557,-16.27813592833484
6.87,-3.6882803915586306,1.404608477737545,-16.246303974972616
6.88,-3.7507097395673075,1.47712315192721,-16.212061639612322
6.890000000000001,-3.823371504956447,1.5388078191184618,-16.175847890895884
6.9,-3.904741476639397,1.5882449454894587,-16.138142150284338
6.91,-3.993107352817087,1.6242182656214181,-16.09946044240092
6.92,-4.0865837344548925,1.6457397462385663,-16.060349900745372
6.93,-4.183131938586286,1.6520794873947715,-16.021381845367753
6.94,-4.280585793724612,1.6427954741830133,-15.983143325587369
6.95,-4.376697409276265,1.6177658047845949,-15.946275104695836
6.96,-4.469144377495232,1.577206546750734,-15.911328092863657
6.97,-4.555605535010024,1.5216981931246014,-15.878853174531384
6.98,-4.633815640069421,1.4521977046107242,-15.849379151555723
6.99,-4.7016229351593735,1.3700383307040176,-15.823382921832494
7.0,-4.757054117126977,1.2769198422612695,-15.801273228638426
7.01,-4.79838004766949,1.1748842004438578,-15.78337512740883
7.0200000000000005,-4.824179011370322,1.066277718928232,-15.769915886175033
7.03,-4.833394738965047,0.9536992448270415,-15.761013079699344
7.04,-4.825385945986012,0.8399355824498027,-15.756665642429365
7.05,-4.799964117863251,0.7278861031153188,-15.756748612010133
7.0600000000000005,-4.757417528983588,0.6204790575669327,-15.761011930783036
7.07,-4.698519616088872,0.5205824381043852,-15.769083620813822
7.08,-4.624520103790686,0.43091320112309905,-15.780477520340265
7.09,-4.53711898971164,0.35394892750171375,-15.794605309088151
7.1000000000000005,-4.43842373992106,0.2918446090260669,-15.810792567498433
7.11,-4.3308905437632985,0.2463593180852091,-15.82829836979457
7.12,-4.217252849954026,0.2187958198327008,-15.846337391804106
7.13,-4.10043836551408,0.20995473048756574,-15.864104129844248
7.140000000000001,-3.9834789891144955,0.2201066502491017,-15.880797872430884
7.15,-3.869417125500102,0.24898241659774714,-15.89564752151621
7.16,-3.7612165841330407,0.2957833115728207,-15.907956037204702
7.17,-3.661665305998216,0.35920658225183466,-15.917094856263503
7.18,-3.573280772002133,0.43748697417299187,-15.92248121419338
7.19,-3.4982581365382,0.5284606143151155,-15.923676689327884
7.2,-3.4384005522432184,0.6296336489547967,-15.920364034827461
7.21,-3.3950725629583847,0.7382626496314715,-15.912354418641193
7.22,-3.3691696318575035,0.8514402716277981,-15.899590174882555
7.23,-3.361104271629231,0.9661840083297432,-15.882143078715025
7.24,-3.370806101959685,1.0795217230615974,-15.860209199089983
7.25,-3.3977390045661666,1.1885765035464593,-15.834099384073028
7.26,-3.440930778500001,1.2906425048681938,-15.804227044174729
7.2700000000000005,-3.499014659093304,1.3832525590515492,-15.77109336215416
7.28,-3.5702800413709372,1.4642349144399283,-15.735270772645126
7.29,-3.6527301622120003,1.5317583945700022,-15.697385335670027
7.3,-3.744144298768279,1.584365320637522,-15.658098675247933
7.3100000000000005,-3.8421419581989893,1.620992222913869,-15.61809013436134
7.32,-3.9442469146229002,1.6409789868126383,-15.578039662070502
7.33,-4.047949454674855,1.6440671127274098,-15.538611817413132
7.34,-4.150764688464061,1.630388565261652,-15.500441353788199
7.3500000000000005,-4.250286294926822,1.600446578189969,-15.464120466325616
7.36,-4.34423459066716,1.5550895987645017,-15.430187919851353
7.37,-4.430498592197862,1.4954803128961434,-15.399120023898767
7.38,-4.507179890820538,1.423062574426874,-15.371354464006966
7.390000000000001,-4.572602973104814,1.3395194182213292,-15.347209459311966
7.4,-4.625349639959023,1.2467363562267455,-15.326919685221117
7.41,-4.664283597712237,1.146762789248611,-15.310656241726445
7.42,-4.688559806527665,1.0417706534637623,-15.29850755803702
7.43,-4.697634073837813,0.9340141586758189,-15.290479322870375
7.44,-4.691268615733554,0.8257896751401983,-15.286495448816426
7.45,-4.669533590710787,0.7193961342662979,-15.286400049452775
7.46,-4.632805708809937,0.6170955552325594,-15.28996016192443
7.47,-4.581763172884865,0.5210709815891574,-15.2968695654312
7.48,-4.517373177878751,0.4333906184158798,-15.306754183537654
7.49,-4.440880862518693,0.35596954848833584,-15.319177225149732
7.5,-4.353790071969418,0.2905280858998269,-15.333646644087795
7.51,-4.257838821794358,0.2385588886259115,-15.349623471605032
7.5200000000000005,-4.154973152302451,0.20129328122468482,-15.36653059409823
7.53,-4.0473117812706185,0.17966776910194632,-15.383763894342941
7.54,-3.9371084723537217,0.17429871513798173,-15.400703509366776
7.55,-3.8267082008036097,0.18545964108518864,-15.41672652586249
7.5600000000000005,-3.7184987854349867,0.213065325784981,-15.431220442834157
7.57,-3.6148596649477227,0.25666364526406704,-15.443596912315032
7.58,-3.5181076977886327,0.31543488072479053,-15.45330579840797
7.59,-3.4304419791254515,0.38820039718382404,-15.45984893176112
7.6000000000000005,-3.353895215453638,0.473441936199995,-15.462817573005546
7.61,-3.2902671736105553,0.5693256161347262,-15.461850196294282
7.62,-3.2410790017381426,0.6737395107385601,-15.456659561620805
7.63,-3.207538215814559,0.7843410259553035,-15.447073724430972
7.640000000000001,-3.190497115288747,0.8986085895868205,-15.43302334508944
7.65,-3.190423916793859,1.0139014569402336,-15.414545567441724
7.66,-3.207384372449015,1.1275239712163256,-15.391784925339687
7.67,-3.2410337223224186,1.2367937148505916,-15.36499133822679
7.68,-3.2906194784048837,1.3391090399418133,-15.334515344171923
7.69,-3.354998355728429,1.432019939937236,-15.30079947266408
7.7,-3.4326585039211523,1.5132861391747006,-15.264369016038385
7.71,-3.5217572970051005,1.5809411139890073,-15.22581841083904
7.72,-3.6201668972700825,1.6333428199134452,-15.185796414217322
7.73,-3.7255280035712333,1.669216880562047,-15.144989611921899
7.74,-3.835310180992044,1.6876896154929681,-15.104104833372045
7.75,-3.946876584407979,1.688309942216363,-15.063851097033938
7.76,-4.057551783652575,1.6710597356338546,-15.024921444536231
7.7700000000000005,-4.164689614241128,1.6363521720208698,-14.987975488934403
7.78,-4.2657407565759495,1.5850176790701898,-14.953622777285595
7.79,-4.358313920271696,1.518280089640105,-14.92240839431644
7.8,-4.440235024384154,1.4377224021850459,-14.894799703429385
7.8100000000000005,-4.509598805308919,1.34524219895296,-14.87117567167585
7.82,-4.564812077772945,1.2430024031839526,-14.851825041943764
7.83,-4.6046325515977715,1.1333749080810267,-14.83695513338941
7.84,-4.628172226844283,1.0188757783081135,-14.82660980833872
7.8500000000000005,-4.634935736355741,0.9021079307929329,-14.82076104190447
7.86,-4.624816204569003,0.7856965253364202,-14.819278981833838
7.87,-4.598090109246905,0.6722276607987597,-14.821936953032324
7.88,-4.555403149319767,0.56418981407761,-14.828418624621676
7.890000000000001,-4.497747850778168,0.4639194695436149,-14.838327062182826
7.9,-4.426433986770171,0.3735525209863176,-14.8511952939976
7.91,-4.343052842541106,0.2949805437091927,-14.866498171954225
7.92,-4.249436192779821,0.22981675931707288,-14.8836650322929
7.930000000000001,-4.147612250072902,0.17936682960157296,-14.902092837483941
7.94,-4.039758712470748,0.14460806268159587,-14.921159569445292
7.95,-3.9281543857913945,0.12617594058341725,-14.94023755153699
7.96,-3.815130562718522,0.12435816903649943,-14.958706383538724
7.97,-3.7030230190981963,0.13909565434444604,-14.97596530153225
7.98,-3.5941255013973925,0.16998995417847473,-14.991444763372064
7.99,-3.490644833189033,0.21631662629114906,-15.004617258862325
8.0,-3.3946605120146955,0.27704505623046194,-15.015006580328468
8.01,-3.30808482745611,0.3508617643760427,-15.022196731746492
8.02,-3.232630120034071,0.43619970902340144,-15.025838652545692
8.03,-3.169777653978549,0.5312700696859205,-15.025656358701475
8.040000000000001,-3.120751900193853,0.63409783797694,-15.021451463248923
8.05,-3.086502429197078,0.7425609143836509,-15.013119728953445
8.06,-3.0676820796392152,0.8544292573301142,-15.000631535647566
8.07,-3.0646313760509187,0.9674059765112056,-14.984016511464059
8.08,-3.0773832460544845,1.079172993324414,-14.963405095150142
8.09,-3.10565718184853,1.187433530791501,-14.93900753537886
8.1,-3.1488636109656754,1.289955626376658,-14.911110151279336
8.11,-3.206113706094497,1.384614890462743,-14.88007023134126
8.120000000000001,-3.276234586100693,1.4694359075112007,-14.846309618718214
8.13,-3.3577898939361766,1.5426315375410047,-14.810307031517661
8.14,-3.449105555358821,1.6026392166744725,-14.772589223664657
8.15,-3.548300421871568,1.6481540506140724,-14.733721072513912
8.16,-3.65332145024577,1.6781572237643043,-14.694294775828876
8.17,-3.761982878117683,1.6919396862395726,-14.654918296663991
8.18,-3.8716826869424095,1.6892462743897927,-14.61628006647938
8.19,-3.978679779561621,1.6710149082502572,-14.579301907694562
8.2,-4.0801630527242665,1.6390596980114243,-14.544596450835462
8.21,-4.177279056635428,1.5925672348944901,-14.51191142498533
8.22,-4.268113285804038,1.5321719537117042,-14.48170419471838
8.23,-4.350807798513903,1.4587739655374188,-14.454401562407853
8.24,-4.423598896280917,1.3735386551446123,-14.43039004025677
8.25,-4.4848546655332076,1.2778908290565585,-14.41000649195865
8.26,-4.533115018003277,1.1735025608142777,-14.393528499597284
8.27,-4.567131814232119,1.0622730733928814,-14.381165188123001
8.28,-4.585916268614149,0.946303421796411,-14.373084672087836
8.290000000000001,-4.5887622667569055,0.8278581166858772,-14.36935857796182
8.3,-4.575258955843513,0.7093183641432773,-14.369887211415797
8.31,-4.545352328103236,0.5931409054278556,-14.374537318008908
8.32,-4.49934659243943,0.48179952745751176,-14.383081935637628
8.33,-4.437912068235981,0.37772613913035796,-14.395201887531917
8.34,-4.362083152527655,0.28324955683424674,-14.410489976352961
8.35,-4.273245748601079,0.20053408590706373,-14.428457917654434
8.36,-4.173114038517175,0.13151995007605577,-14.448545919107032
8.370000000000001,-4.063696789793589,0.07786780136111904,-14.470134723212551
8.38,-3.9472539394653867,0.040909265203748046,-14.492559803309163
8.39,-3.8262447958552315,0.021605446954578222,-14.51512725038636
8.4,-3.703268702412237,0.0205150836066193,-14.537131032773594
8.41,-3.581000880456465,0.03777369783329393,-14.55787084398398
8.42,-3.462124511793759,0.0730843043976307,-14.576670229109414
8.43,-3.3492617909502407,0.1257207604243706,-14.592894221872715
8.44,-3.2449065833679844,0.19454307352205752,-14.605965849308697
8.45,-3.151359390471356,0.2780250220751617,-14.615381300902074
8.46,-3.070668645201778,0.37429242597331147,-14.620722822852684
8.47,-3.0045788422880806,0.48117127049698716,-14.621669253346553
8.48,-2.954487523685907,0.5962438885122116,-14.618003783911377
8.49,-2.921412282039652,0.7169115926576356,-14.609618742767466
8.5,-2.905968825664681,0.8404612606446048,-14.596517279984363
8.51,-2.9083607098244553,0.9641343592028481,-14.57881359187738
8.52,-2.928385604007807,1.0851966502480312,-14.5567496045809
8.53,-2.965428310819533,1.2010005059450628,-14.530615248231895
8.540000000000001,-3.0185025913411647,1.3090517162639705,-14.500814972514686
8.55,-3.086276014009099,1.407064614847465,-14.467830289947834
8.56,-3.1671094188129283,1.4930113244415786,-14.432206617315831
8.57,-3.2591028365498222,1.5651627372121195,-14.394538941215814
8.58,-3.3601463781543424,1.6221204245344767,-14.35545674203842
8.59,-3.467974147101648,1.6628389216396744,-14.31560871252335
8.6,-3.580219553250628,1.6866384791347215,-14.27564768475512
8.61,-3.694470658566605,1.693208499016714,-14.23621610725974
8.620000000000001,-3.8083237610677196,1.682601933730921,-14.197932520537957
8.63,-3.9194340037785027,1.655221905184443,-14.161379266248238
8.64,-4.0255620924809365,1.6118010376593848,-14.127091640841195
8.65,-4.124615940436407,1.5533748006828496,-14.095548720567942
8.66,-4.2146869738332615,1.481249954219043,-14.067165860927696
8.67,-4.294080442994014,1.3969693710413504,-14.042288963646282
8.68,-4.361339765261091,1.3022743168222755,-14.021190439825086
8.69,-4.415264934762109,1.1990652099755914,-14.004066798816462
8.700000000000001,-4.454925005637818,1.0893618200375008,-13.991037804997985
8.71,-4.479665340872253,0.9752639639943925,-13.982146956877619
8.72,-4.489109787977631,0.8589130487561569,-13.97736322916254
8.73,-4.483158442985349,0.7424552396241622,-13.976583857835566
8.74,-4.461981366596984,0.6280065676851796,-13.979638057144431
8.75,-4.426011753312198,0.5176207586892998,-13.98630169547274
8.76,-4.375928965726236,0.4132576185605211,-13.99628584092604
8.77,-4.312640022265035,0.31675458179235677,-14.009230455246849
8.78,-4.237270697278066,0.2298033112630232,-14.024742983473947
8.790000000000001,-4.151142731800796,0.15392410668169518,-14.042390443136386
8.8,-4.055751529959052,0.09044686639293736,-14.061706350941753
8.81,-3.9527442391020724,0.040491368452167165,-14.082197561559138
8.82,-3.843894715832949,0.004951371253442471,-14.103351700714875
8.83,-3.7310775746240115,-0.015519167975172665,-14.124644703167297
8.84,-3.616240477050505,-0.02051747926694364,-14.14554866122644
8.85,-3.5013752529826534,-0.00990012645502708,-14.165539784628029
8.86,-3.3884873348284104,0.016211463052207442,-14.184106636053901
8.870000000000001,-3.2795647608407315,0.057429182941698964,-14.200758259995657
8.88,-3.176543791719973,0.1131001569508383,-14.215032953794426
8.89,-3.0812794384485924,0.18231301592458715,-14.226505530714231
8.9,-2.9955107505800123,0.2639073179275033,-14.234795722700612
8.91,-2.9208288465984227,0.3564881589482042,-14.239575576015548
8.92,-2.85864563449055,0.45844554685368133,-14.240576381083613
8.93,-2.8101646427574547,0.5679782115006937,-14.237594791079577
8.94,-2.7763542815715327,0.6831219737871498,-14.2304980378714
8.950000000000001,-2.757924539086603,0.8017823536893798,-14.219228005932747
8.96,-2.755307672019592,0.9217710798758639,-14.203804038403524
8.97,-2.7686438736539816,1.0408457107484164,-14.184324270697841
8.98,-2.797772088006808,1.1567520108595402,-14.160965465578448
8.99,-2.842229578967281,1.2672686423114923,-14.13399119020244
9.0,-2.9012504488033906,1.3702506247819635,-14.103729985082321
9.01,-2.9737738802976104,1.4636735497232751,-14.070564843924792
9.02,-3.058467204525826,1.5456784137259962,-14.034951889242063
9.03,-3.1537456325852125,1.6146112074435628,-13.99740017008556
9.040000000000001,-3.2578007526238117,1.6690599717798675,-13.958462068328027
9.05,-3.3686352407558773,1.707887335271231,-13.918722370216065
9.06,-3.4841018291139103,1.7302571903286394,-13.878786588200274
9.07,-3.601946674249586,1.7356554946954423,-13.839268494287989
9.08,-3.719855442356224,1.7239037048120447,-13.800777394912881
9.09,-3.8355013833585994,1.695165004796007,-13.76390532169574
9.1,-3.9465939165920307,1.6499428497630753,-13.729214551339517
9.11,-4.050927000306167,1.589071901855787,-13.697225636194137
9.120000000000001,-4.146425641411806,1.513701324444066,-13.66840637510573
9.13,-4.231189340207274,1.4252711934881848,-13.64316198954914
9.14,-4.303532045913212,1.32548216763777,-13.621826605538688
9.15,-4.362016844908597,1.216259517456566,-13.604656437285247
9.16,-4.405485028844586,1.099712396980165,-13.591824709303946
9.17,-4.433078875863042,0.9780891928906444,-13.583418439862337
9.18,-4.4442575160472995,0.8537302763448481,-13.579437169344567
9.19,-4.438805711711483,0.7290192368383186,-13.579793612269953
9.200000000000001,-4.416835437256078,0.6063337847783921,-13.584316191812677
9.21,-4.378780361650161,0.48799751048772266,-13.592753358972082
9.22,-4.325383533501736,0.3762335963012088,-13.604779553048795
9.23,-4.257679640362379,0.2731217039193254,-13.62000618692173
9.24,-4.17697199966781,0.18055885956405732,-13.637995727050475
9.25,-4.084793389683965,0.10022239785957204,-13.658233735845164
9.26,-3.9828840231700755,0.03354315023532595,-13.680184203918184
9.27,-3.873150414848763,-0.018319291526752268,-13.703284364068553
9.28,-3.757626032016891,-0.05449429058895533,-13.726955931166403
9.290000000000001,-3.638430483735954,-0.07441168376330437,-13.750616350166432
9.3,-3.5177281581588713,-0.07780711952299468,-13.77368981639353
9.31,-3.397687167364296,-0.0647213594518461,-13.795617854078655
9.32,-3.2804394534447465,-0.03549382915263527,-13.815869249954707
9.33,-3.168042756422454,0.009249187801922909,-13.83394918408296
9.34,-3.0624450607832383,0.06861126377063154,-13.849407425345076
9.35,-2.965452164756381,0.1414468517916872,-13.861845460658431
9.36,-2.8786986819955795,0.2263860879855487,-13.870922509761138
9.370000000000001,-2.8036230401471594,0.32186262991909625,-13.87636032449472
9.38,-2.741446350332939,0.426144077485025,-13.87794683128934
9.39,-2.6931555324723147,0.5373642690421035,-13.875538559766472
9.4,-2.659491108739889,0.6535566544214338,-13.86906180199701
9.41,-2.6409387186636044,0.7726885857456641,-13.858512749795757
9.42,-2.637725356905868,0.8926954567820626,-13.84395642330501
9.43,-2.6498193662176894,1.011514631380372,-13.825524638363968
9.44,-2.676934409280954,1.1271185764304616,-13.803412992601233
9.450000000000001,-2.718537198127763,1.2375466372292143,-13.777876961549515
9.46,-2.7738586633758775,1.3409352705900734,-13.749227197242874
9.47,-2.841908304274474,1.4355464894865566,-13.717824109861098
9.48,-2.9214942935160955,1.5197944879950085,-13.684082183076667
9.49,-3.011237174125723,1.5922676045818849,-13.648439526318882
9.5,-3.109594951585672,1.6517505494857878,-13.611360061002143
9.51,-3.214890736322179,1.6972423901310463,-13.573337589919221
9.52,-3.3253367619699734,1.727970927775498,-13.53488089025704
9.53,-3.439062606288577,1.7434047190681712,-13.49650569129707
9.540000000000001,-3.5541439623295936,1.7432611467207597,-13.45872674884448
9.55,-3.668633636157104,1.7275114291513258,-13.422049521282789
9.56,-3.780590639504969,1.6963808285212127,-13.386962639373154
9.57,-3.8881112565026035,1.6503465203258159,-13.353929991886137
9.58,-3.989359294559592,1.5901311023349578,-13.32338328930825
9.59,-4.082595756257268,1.5166923616910717,-13.295715000697886
9.6,-4.16620727695505,1.4312092426439398,-13.271271838299569
9.61,-4.238732724073335,1.3350644599721646,-13.250348919341205
9.620000000000001,-4.298888233019204,1.2298234773354564,-13.233184548289547
9.63,-4.345589521281964,1.1172103559130244,-13.219955891965109
9.64,-4.377971360176678,0.9990806584151393,-13.210775566283527
9.65,-4.3954037821156975,0.8773917578219323,-13.205689222807893
9.66,-4.397504493353241,0.7541711905085078,-13.204674235466493
9.67,-4.384147670847653,0.6314829181995181,-13.207639444778724
9.68,-4.35546810882814,0.5113929156678109,-13.214426149219882
9.69,-4.311861201792942,0.3959339467405384,-13.224810220057961
9.700000000000001,-4.253978318065438,0.28707049131277923,-13.238505400292595
9.71,-4.182717635464656,0.1866644019582645,-13.255167733805056
9.72,-4.099210493728,0.09644186795870768,-13.274401075611246
9.73,-4.004830933188175,0.017968823576092197,-13.29587004084688
9.74,-3.901103948973367,-0.04739351307662043,-13.31903769849
9.75,-3.789723573645229,-0.09850373869022783,-13.343343528560624
9.76,-3.6725351716464325,-0.13445891090013962,-13.36825600677005
9.77,-3.55149059421299,-0.15461473392479225,-13.393231560252376
9.78,-3.4286142633506365,-0.15859805826436707,-13.417724091370138
9.790000000000001,-3.3059674731839954,-0.1463146254724596,-13.44119467595875
9.8,-3.1856120192167316,-0.1179515459380886,-13.463121121224736
9.81,-3.0695735994989066,-0.07397466494301264,-13.48300727565039
9.82,-2.959805905106271,-0.0151207959463881,-13.500391853488633
9.83,-2.8581556283108913,0.057615097302723156,-13.514856717756107
9.84,-2.7663297981790254,0.1429975082079577,-13.52603427576795
9.85,-2.685865507658258,0.23957242781865482,-13.53361398937776
9.86,-2.618102957589225,0.34569330112981944,-13.537347793050836
9.870000000000001,-2.5641619875205737,0.459550613706159,-13.537054391503762
9.88,-2.5249229427754107,0.5792042533987807,-13.532622270151894
9.89,-2.5010119589799307,0.7026181167594687,-13.52401142797533
9.9,-2.4927909238160533,0.8276962399871631,-13.511253808594212
9.91,-2.5003523234261715,0.952319862150364,-13.4944524121003
9.92,-2.5235194097585545,1.0743848805018066,-13.473779010041309
9.93,-2.561850528763376,1.1918376280901906,-13.449470878994704
9.94,-2.614648292713259,1.302710608500377,-13.421826284325647
9.950000000000001,-2.68097428202088,1.4051561088374165,-13.391198669002426
9.96,-2.7596659835150255,1.4974763295822082,-13.357990459957431
9.97,-2.8493590232461026,1.5781517159920522,-13.322645621957088
9.98,-2.9485169778157765,1.6458663584493478,-13.285661049323295
9.99,-3.0554498736945495,1.6995262876947308,-13.247542555744438
10.0,-3.168341712414859,1.7382752812856148,-13.208787241333308
10.01,-3.2852942616420835,1.7615097088684615,-13.16992228607307
10.02,-3.404353673632901,1.768884709043725,-13.13147375018134
10.03,-3.523543381261608,1.7603172793732593,-13.093957878921799
10.040000000000001,-3.6408968828464583,1.7359849083181613,-13.057872703893713
10.05,-3.754489725218157,1.6963198813530527,-13.023690110967678
10.06,-3.862470238291576,1.6419995828263967,-12.991848470735267
10.07,-3.9630886228449484,1.5739329666639552,-12.962745924749019
10.08,-4.054723931319952,1.493243488900786,-12.936734428991063
10.09,-4.135908476761103,1.4012489595295021,-12.914114647139643
10.1,-4.205349482804247,1.2994385962832953,-12.895131725190637
10.11,-4.261947547730615,1.1894478495597025,-12.879972023932707
10.120000000000001,-4.304811813061114,1.073031432485271,-12.868760811594155
10.13,-4.333271832958322,0.952034743907344,-12.861560905599445
10.14,-4.346885724102849,0.828364544895887,-12.858372322094603
10.15,-4.345444820313236,0.7039591600922539,-12.859132857758599
10.16,-4.328974809489189,0.5807584977592722,-12.863719592129135
10.17,-4.297733321190283,0.4606745823892338,-12.871951277832663
10.18,-4.252204155147705,0.345562845104608,-12.883591554141919
10.19,-4.1930882663844296,0.23719458329516294,-12.898352929439518
10.200000000000001,-4.12129170766235,0.1372310048006372,-12.915901455900501
10.21,-4.037910698514121,0.04719903328354161,-12.935862041513827
10.22,-3.9442141675476976,-0.03153049251977724,-12.95782427341297
10.23,-3.8416239162068986,-0.09776245520933852,-12.981348725349738
10.24,-3.731696785386844,-0.15049335385371831,-13.00598908526879
10.25,-3.6160892996487353,-0.18892803978306338,-13.031253514139726
10.26,-3.4965440718990037,-0.2124880437088632,-13.056655586693434
10.27,-3.374860458080324,-0.22082020151103027,-13.081708673128032
10.28,-3.252867639434701,-0.21380129028032402,-13.105932210208781
10.290000000000001,-3.13239756936642,-0.19153934832894093,-13.128858778165261
10.3,-3.0152579456840876,-0.15437169286616137,-13.150040973425865
10.31,-2.903205566790859,-0.10285967028383963,-13.169057986220558
10.32,-2.7979204180224566,-0.03778020572423141,-13.18552179741784
10.33,-2.7009809275931773,0.03988570539590336,-13.19908288983847
10.34,-2.613840522231256,0.12896742262973487,-13.209435447557755
10.35,-2.5378056719307818,0.2281223219048982,-13.21632197596159
10.36,-2.4740171351997766,0.33585521200381063,-13.219536993624988
10.370000000000001,-2.4234323763452794,0.4505401513628958,-13.218930268795745
10.38,-2.3868107117974784,0.5704454979078349,-13.214409160298178
10.39,-2.364702398893082,0.6937584766484648,-13.205939971499465
10.4,-2.357439520601561,0.8186126456351265,-13.193548658763497
10.41,-2.365130643524779,0.9431157515643835,-13.177320544331383
10.42,-2.3876587359452257,1.065378197520881,-13.15739914851081
10.43,-2.4246824863007075,1.1835414128704302,-13.133984148723465
10.44,-2.4756408924097113,1.295805910765229,-13.107328510556563
10.450000000000001,-2.5397612235720355,1.400458826395937,-13.077734776422593
10.46,-2.6160708347838595,1.4959004515305236,-13.045550420281492
10.47,-2.7034107906903118,1.5806676466878304,-13.01116292139294
10.48,-2.8004534709501123,1.6534571736028336,-12.974993809510671
10.49,-2.9057228927356875,1.7131458142420106,-12.93749424238666
10.5,-3.0176189719306743,1.7588082517395514,-12.899145569992479
10.51,-3.134433088681374,1.7897294847994845,-12.860418518537681
10.52,-3.2543837429540647,1.8054182667470395,-12.821803356853442
10.53,-3.375640376143574,1.805614094558934,-12.783789213200338
10.540000000000001,-3.4963513470370406,1.7902913623068688,-12.74685658972808
10.55,-3.614672293155413,1.7596598877394798,-12.711469994168798
10.56,-3.7287944623445646,1.714161770443205,-12.678070799144894
10.57,-3.8369723638261477,1.6544646406430885,-12.647070494025119
10.58,-3.9375506170862864,1.5814513973999884,-12.618844353896563
10.59,-4.028989451944649,1.496206200481255,-12.593725684132089
10.6,-4.109887813189045,1.399997849678234,-12.572000840356095
10.61,-4.179004757700418,1.294260413910192,-12.553904851734512
10.620000000000001,-4.235278282754158,1.180570714624941,-12.539617901934196
10.63,-4.277841215389956,1.0606239710044396,-12.5292626779867
10.64,-4.3060339695746,0.9362077582342877,-12.522902631119512
10.65,-4.319414107498913,0.8091743758704883,-12.52054115961237
10.66,-4.317762402579173,0.6814125585986631,-12.522121736147275
10.67,-4.301085466724485,0.5548186155054673,-12.527528957914226
10.68,-4.269614840816292,0.4312676675218078,-12.536590505966895
10.69,-4.2238026285817,0.31258535871823523,-12.549079970266273
10.700000000000001,-4.164313755248397,0.2005204844146619,-12.564720492840047
10.71,-4.092015021318768,0.09671903870528098,-12.583189155140365
10.72,-4.007961127918774,0.0026999278573339724,-12.60412204859542
10.73,-3.913377946869294,-0.08016712174123813,-12.627119926731526
10.74,-3.8096433294947816,-0.15068123756837493,-12.651754348900154
10.75,-3.698265809668891,-0.2078273514383827,-12.677574374535306
10.76,-3.580864891440302,-0.2507894207449513,-12.704126574222732
10.77,-3.459136024633489,-0.27896375551422253,-12.730921453300564
10.78,-3.3348356533574677,-0.29196419742143703,-12.75748146774876
10.790000000000001,-3.209751510665847,-0.2896272654620789,-12.783334326473343
10.8,-3.085676254091887,-0.2720131393547692,-12.808019870641502
10.81,-2.9643812913128063,-0.23940333857681617,-12.831096705540993
10.82,-2.8475911781553997,-0.19229518149224584,-12.852148491410128
10.83,-2.736958967112268,-0.1313931537580902,-12.87078980315231
10.84,-2.6340428447460216,-0.057597361000032654,-12.886671481861583
10.85,-2.5402843836343587,0.0280107213974663,-12.899485406680947
10.86,-2.4569886963290597,0.12418495418832128,-12.90896862745176
10.870000000000001,-2.3853067469640266,0.229533416246094,-12.914906808793797
10.88,-2.3262200388375245,0.34253916046917066,-12.917136947199435
10.89,-2.280527856920815,0.4615825214045295,-12.915549334221742
10.9,-2.248837205757969,0.5849646374465926,-12.910088749591912
10.91,-2.2315555407134853,0.7109318404740432,-12.900754879735079
10.92,-2.228886352391581,0.8377005641033654,-12.88760196712404
10.93,-2.240827621101073,0.9634824197541609,-12.870737707130818
10.94,-2.2671731223053952,1.0865090966179558,-12.850321417910733
10.950000000000001,-2.3075165239949773,1.2050567504110263,-12.826561518690689
10.96,-2.3612581829178287,1.317469560082492,-12.799712359761138
10.97,-2.4276145139598193,1.4221821485416068,-12.770070454911881
10.98,-2.505629774832073,1.5177405860960174,-12.73797017398503
10.99,-2.59419008423751,1.6028217146857684,-12.703778958288586
11.0,-2.692039427106794,1.6762505132914525,-12.667892139603408
11.01,-2.7977975095343344,1.7370154457840419,-12.630727401123751
11.02,-2.909981087037437,1.784281875335998,-12.5927266795367
11.03,-3.0270199275232037,1.81740152029173,-12.55433219926216
11.040000000000001,-3.147280461985141,1.8359209127635352,-12.515988257398506
11.05,-3.2690900554640807,1.8395871928940841,-12.478142693090732
11.06,-3.390758414178136,1.8283504545909142,-12.441235749958368
11.07,-3.5106004246996907,1.802363694251805,-12.405694170901006
11.08,-3.626958813788898,1.7619800749852055,-12.371925500178367
11.09,-3.7382263396413817,1.7077475534224227,-12.340312664812815
11.1,-3.842867234851542,1.6404009546902363,-12.3112089024028
11.11,-3.93943752948035,1.5608516389124023,-12.284933123581332
11.120000000000001,-4.026604334043175,1.4701748096640885,-12.26176568349882
11.13,-4.103163330095219,1.369594756168367,-12.241944742256845
11.14,-4.1680546326395715,1.260468157691461,-12.225663162072252
11.15,-4.220376733938996,1.1442656448922048,-12.213066004974653
11.16,-4.259398225117543,1.022551977701612,-12.204248688997321
11.17,-4.284567361804707,0.8969649160159078,-12.19925577956269
11.18,-4.295519157187001,0.769193215583158,-12.198080473447256
11.19,-4.292079990886915,0.6409540174231627,-12.200664761861368
11.200000000000001,-4.274269716425483,0.5139698013861191,-12.206900266171093
11.21,-4.242301151931066,0.3899454500279783,-12.21662974484406
11.22,-4.196577058912504,0.2705453364455797,-12.229649247429219
11.23,-4.13768454679311,0.15737119901306912,-12.245710888556317
11.24,-4.066387055878247,0.05194076559604224,-12.264526202874347
11.25,-3.983613991774209,-0.0443324702287054,-12.285770038553093
11.26,-3.8904481296799536,-0.13015810482448642,-12.309084945447754
11.27,-3.7881110347987503,-0.20438588831255183,-12.334085969896332
11.28,-3.677946574779002,-0.266021066373389,-12.360365838846969
11.290000000000001,-3.5614055870388133,-0.3142368814912021,-12.387511002611385
11.3,-3.440018490008587,-0.3483873216690946,-12.415076716092102
11.31,-3.3153820215825505,-0.3680138937695383,-12.442621163488457
11.32,-3.1891359821658245,-0.37285199712118106,-12.469704276370653
11.33,-3.0629409572674913,-0.3628343263549902,-12.495892433513028
11.34,-2.9384560926844867,-0.3380915485782387,-12.520764250752075
11.35,-2.817316920996377,-0.29895031672620564,-12.543916197924569
11.36,-2.7011135411190006,-0.24592864940518017,-12.564967966639426
11.370000000000001,-2.59136944452661,-0.17972874439894154,-12.583567516937796
11.38,-2.4895212712763963,-0.101227320862808,-12.599395735285546
11.39,-2.3968998324284208,-0.01146365558212692,-12.612170627106842
11.4,-2.314712490995361,0.08837456939653975,-12.621651025988076
11.41,-2.244027332990282,0.19696737121423724,-12.62763972340596
11.42,-2.1857592341139855,0.31288030326465033,-12.629986004072451
11.43,-2.140658075776247,0.43458369805543207,-12.628587541459387
11.44,-2.1092990400688567,0.5604733386319916,-12.623391668545198
11.450000000000001,-2.0920754920955424,0.6888918367153518,-12.614395938507819
11.46,-2.089194213744438,0.8181507345437372,-12.601648032985441
11.47,-2.1006731557618257,0.9465529827883115,-12.58524499619039
11.48,-2.1263417330443914,1.0724153065698352,-12.565331818216231
11.49,-2.165843659138631,1.194090507802395,-12.542099365147681
11.5,-2.2186421368701548,1.3099889152815645,-12.515781750245198
11.51,-2.2840278563528393,1.4185994807958648,-12.486653002391815
11.52,-2.3611284221014386,1.5185087050743182,-12.45502349155809
11.53,-2.4489206143487467,1.6084192815042782,-12.421235639947664
11.540000000000001,-2.546244201765014,1.6871665377411624,-12.38565936291464
11.55,-2.6518176236193587,1.7537329897746994,-12.348687142782069
11.56,-2.7642585045446313,1.8072624793713494,-12.3107384627437
11.57,-2.882093263492409,1.8470675023211485,-12.272226127795475
11.58,-3.003784344956546,1.8726399590744653,-12.233577240206957
11.59,-3.127748410632206,1.883656434686582,-12.195220748318437
11.6,-3.2526006545267205,1.8805287648164155,-12.157490164686303
11.61,-3.3771701171612056,1.8637029129797464,-12.12066992419946
11.620000000000001,-3.500713917725875,1.8339633766234076,-12.084897773249319
11.63,-3.6207699873722885,1.7896408222929971,-12.050909708807575
11.64,-3.735710297473592,1.731225878022383,-12.019097860157592
11.65,-3.8439659573292895,1.6594055166855504,-11.989827242179416
11.66,-3.9440479430913813,1.575053463344427,-11.963431021010464
11.67,-4.034570328733555,1.479218765423825,-11.940205184527
11.68,-4.114270076036093,1.3731141907044062,-11.920404099432002
11.69,-4.182026733558139,1.2580982438649893,-11.904236502090118
11.700000000000001,-4.236879081475004,1.1356568455794607,-11.891862286583804
11.71,-4.278039676623922,1.0073822877850185,-11.883390002843981
11.72,-4.304906713802177,0.8749506632405536,-11.87887513938818
11.73,-4.317073055182928,0.7400978698411893,-11.87831922468059
11.74,-4.314332272070854,0.6045946114004271,-11.881669761229336
11.75,-4.296681546135494,0.47022093454747615,-11.88882100039465
11.76,-4.264321438613316,0.33874064487274747,-11.899615534559146
11.77,-4.217652518555285,0.21187604544286662,-11.913846682627215
11.78,-4.157268949409975,0.09128349107163336,-11.931261613699935
11.790000000000001,-4.0839491225982005,-0.021469980723527404,-11.95156517010427
11.8,-3.99864365976936,-0.12492830537248556,-11.974424268700634
11.81,-3.9024607107676186,-0.21776647206590896,-11.999472907052471
11.82,-3.796649239198272,-0.29880807601961107,-12.02631753927863
11.83,-3.68258201246536,-0.3670401754412667,-12.054549664980389
11.84,-3.5617309092928737,-0.42162693659250905,-12.083734669211973
11.85,-3.435648143400502,-0.4619188546745888,-12.113428495158406
11.86,-3.3059446888002006,-0.4874593594038664,-12.143187001414974
11.870000000000001,-3.17426661308593,-0.497989044514555,-12.172568762569531
11.88,-3.0422721807862607,-0.4934466189247046,-12.201141050877313
11.89,-2.911609281139555,-0.47396704204129736,-12.228485564579293
11.9,-2.7838932762628015,-0.4398769762085665,-12.254203884722422
11.91,-2.6606859729365437,-0.39168746293785134,-12.27792247807333
11.92,-2.5434757824652316,-0.33008424171340517,-12.299297250457128
11.93,-2.4336593543704534,-0.25591590460721875,-12.318017588514087
11.94,-2.332524906162626,-0.1701800445920303,-12.333809843209297
11.950000000000001,-2.241237515871644,-0.07400780475512311,-12.346440209355462
11.96,-2.1608263962900525,0.03135302380518423,-12.35571700591245
11.97,-2.0921743510136563,0.14455596918501862,-12.361492327988136
11.98,-2.0360094425325546,0.26417463090598126,-12.363663079537124
11.99,-1.9928988965612786,0.3887219326864423,-12.362171397627696
12.0,-1.9632452376164626,0.5166696086883704,-12.357004485678594
12.01,-1.947284609239818,0.6464675853694823,-12.348193887534105
12.02,-1.9450872122194522,0.7765631086293446,-12.335814229344832
12.030000000000001,-1.9565597456980948,0.9054192725714335,-12.319981478790012
12.040000000000001,-1.9814497299000773,1.0315328034098843,-12.30085076223382
12.05,-2.0193515798810213,1.153450898854716,-12.278613785794038
12.06,-2.069714269720884,1.2697869980728613,-12.253495908826142
12.07,-2.1318503790887604,1.3792352554458425,-12.22575293715745
12.08,-2.2049465017698813,1.4805837615152964,-12.195667640379785
12.09,-2.288074556155666,1.572726232894708,-12.16354612543193
12.1,-2.3802045564778735,1.6546724201899412,-12.129715726287277
12.11,-2.480218379638501,1.725556980100291,-12.09452372468133
12.120000000000001,-2.58691860987931,1.7846456048171524,-12.058315321592069
12.13,-2.6990481187693818,1.831341987589652,-12.021451204151512
12.14,-2.815302325573548,1.8651914982319604,-11.984295852511513
12.15,-2.9343435706312513,1.8858838341049184,-11.947213663897893
12.16,-3.054815427921534,1.8932543036911837,-11.910565172294824
12.17,-3.1753569995171422,1.887283515178927,-11.874703372347835
12.18,-3.2946168500527095,1.8680958446616294,-11.839970206464253
12.19,-3.4112666875644604,1.8359566693693115,-11.806693190191499
12.200000000000001,-3.524014507085748,1.7912680027850836,-11.77518227954149
12.21,-3.6316173591991148,1.7345635464051488,-11.745726857941536
12.22,-3.732893266863153,1.6665019314259988,-11.718593067127955
12.23,-3.826732948673909,1.587859685883693,-11.694021185522963
12.24,-3.9121101981520545,1.4995223171973848,-11.672223488897004
12.25,-3.9880916689463026,1.4024752066189214,-11.653382262370549
12.26,-4.053846306244243,1.2977934815949872,-11.637647959531682
12.27,-4.108652898746642,1.1866307492153154,-11.625137935329656
12.280000000000001,-4.151907182884768,1.0702076785997305,-11.615935289300301
12.290000000000001,-4.183128275424645,0.9497995357623644,-11.610087941005533
12.3,-4.201962969546814,0.826723336941854,-11.60760829967907
12.31,-4.20818964149801,0.7023247769728403,-11.60847303283834
12.32,-4.201721061771516,0.5779642708555401,-11.612623169208572
12.33,-4.182605166248565,0.45500332364821416,-11.619964725456631
12.34,-4.151025243797787,0.33479068702640413,-11.63036948369393
12.35,-4.1072987568004375,0.21864771944128966,-11.643676165705907
12.36,-4.051874195792373,0.10785538368539313,-11.659692040098633
12.370000000000001,-3.9853274113384956,0.0036401911295404765,-11.678194703413578
12.38,-3.9083571337416214,-0.0928387999931315,-11.698938050307143
12.39,-3.821776647134924,-0.18050291356021914,-11.721648456339167
12.4,-3.726504864151864,-0.25836616155759207,-11.74602383488166
12.41,-3.623560049941527,-0.3255457083726941,-11.771747978757805
12.42,-3.5140481580785132,-0.38127240222622494,-11.798488820287862
12.43,-3.399151384981298,-0.42489989879376844,-11.825901938138868
12.44,-3.280115764436307,-0.45591253782761176,-11.853634238081643
12.450000000000001,-3.158237892675626,-0.4739319081303682,-11.881327779653196
12.46,-3.034850888400849,-0.4787219791151065,-11.908623714452013
12.47,-2.9113097811117434,-0.47019263946016426,-11.935166277489683
12.48,-2.788976596864961,-0.4484016218844671,-11.960606760598509
12.49,-2.6692050112008037,-0.41355482663979914,-11.984607500079948
12.5,-2.55332503235756,-0.36600487097455836,-12.00684575149133
12.51,-2.4426278101346366,-0.3062479378747057,-12.02701742988924
12.52,-2.3383506903827387,-0.2349189158879883,-12.044840683506289
12.530000000000001,-2.241662853162602,-0.1527848613353811,-12.060059216801996
12.540000000000001,-2.1536515533534346,-0.060736840991135244,-12.072445359724933
12.55,-2.0753092835267077,0.040219757895621544,-12.081802807131883
12.56,-2.007521941436033,0.14897636242221937,-12.087969011376716
12.57,-1.9510582323877224,0.2643336400558361,-12.090817178406425
12.58,-1.9065603856729951,0.3850151130883583,-12.090257852328511
12.59,-1.874536388487405,0.5096817426989529,-12.086240049718576
12.6,-1.8553538030631265,0.6369473077599137,-12.078751936742853
12.61,-1.849235232159474,0.7653944815903222,-12.06782103761554
12.620000000000001,-1.8562555613204017,0.8935912247679012,-12.05351396491208
12.63,-1.876341001081642,1.0201074976678852,-12.035935665352516
12.64,-1.9092699096511774,1.1435318612534728,-12.015228211263054
12.65,-1.9546753508994192,1.262487867586961,-11.991569154944498
12.66,-2.012050595144121,1.3756503681731238,-11.965172837869337
12.67,-2.080753464341094,1.4817603141692695,-11.936282312062099
12.68,-2.1600132305080733,1.5796391690284248,-11.905162603376262
12.69,-2.248942562943996,1.6682029771228994,-11.872108318694625
12.700000000000001,-2.346546964161729,1.7464743798495435,-11.837435389072757
12.71,-2.451736613754406,1.8135935332161315,-11.80147735113865
12.72,-2.5633392796488623,1.8688275437495396,-11.764581441479457
12.73,-2.680114244574584,1.9115783972542153,-11.727104518354507
12.74,-2.800766846601653,1.9413891223048867,-11.689408930949572
12.75,-2.923963608348134,1.9579482726440103,-11.651858336834884
12.76,-3.048347681940384,1.9610926288461796,-11.614813544601365
12.77,-3.1725544723865955,1.9508081248937168,-11.578628416607645
12.780000000000001,-3.295227146036543,1.92722900357679,-11.54364590757827
12.790000000000001,-3.4150319212038713,1.8906352216578952,-11.51019426493915
12.8,-3.5306728812666184,1.841448025801223,-11.47858346574025
12.81,-3.640906236179621,1.780224444225873,-11.44910185007123
12.82,-3.744553793501068,1.7076496437735948,-11.422013100319235
12.83,-3.8405154730577418,1.6245282773313758,-11.397553520654231
12.84,-3.9277807398264684,1.531774451110389,-11.375929682253894
12.85,-4.005438946633823,1.4304006228366144,-11.357316412398646
12.86,-4.072688310808356,1.3215055411508922,-11.341855195897287
12.870000000000001,-4.128843566998566,1.206261378385849,-11.329652967086766
12.88,-4.173342206411156,1.0859002496640964,-11.320781304003852
12.89,-4.205749242205224,0.9617002601163762,-11.315276032579842
12.9,-4.225760500472537,0.8349712829543009,-11.313137228043622
12.91,-4.23320442633363,0.7070406547800736,-11.314329605462943
12.92,-4.228042422212955,0.5792388110537127,-11.31878329383282
12.93,-4.2103677392330106,0.4528852526614987,-11.326394964370799
12.94,-4.18040330680695,0.32927487712270065,-11.337030548949215
12.950000000000001,-4.138498602298762,0.20966492099139233,-11.35052967960611
12.96,-4.085120558010532,0.09526141184513329,-11.366692254923933
12.97,-4.020851987785675,-0.012791586203403676,-11.385298800591444
12.98,-3.9463826053373294,-0.11342336176378454,-11.406106582233056
12.99,-3.8625007449899673,-0.205646605495431,-11.428852350003636
13.0,-3.770084215758681,-0.2885664434086477,-11.453255246515784
13.01,-3.67009043500841,-0.3613883617795618,-11.479019834626538
13.02,-3.5635459657637685,-0.42342499148793983,-11.505839211060875
13.030000000000001,-3.451535418093818,-0.4741017756994709,-11.533398217976526
13.040000000000001,-3.3351901336538354,-0.5129613391520945,-11.561376632332955
13.05,-3.215676565228165,-0.5396666890818606,-11.589452364344751
13.06,-3.0941844009140005,-0.5540032267798183,-11.617304650714175
13.07,-2.9719148036692093,-0.5558795075636622,-11.644617142884675
13.08,-2.850068663257595,-0.5453268498677418,-11.671080923150688
13.09,-2.729835026976771,-0.5224977812577509,-11.69639740498333
13.1,-2.6123798215058978,-0.48766339476294496,-11.720281092163253
13.11,-2.498834958290472,-0.44120962961238847,-11.742462174564778
13.120000000000001,-2.3902879097961325,-0.38363251880038673,-11.762688940898244
13.13,-2.2877718255853687,-0.3155325538161716,-11.780729997445425
13.14,-2.192256266182799,-0.2376081278689517,-11.796376272703235
13.15,-2.1046386351816966,-0.15064819209897282,-11.809442793950783
13.16,-2.025736344356477,-0.0555241707060197,-11.819770229753301
13.17,-1.956279793237683,0.046818764222507386,-11.827226183364562
13.18,-1.896906201226212,0.15537097775017977,-11.8317062320802
13.19,-1.84815430446343,0.2690681660924866,-11.833134712306029
13.200000000000001,-1.8104599843845133,0.38680153129870987,-11.83146524066716
13.21,-1.7841528634389736,0.5074282475220901,-11.826680967959597
13.22,-1.769453785797185,0.6297821887648134,-11.818794586902163
13.23,-1.7664745998193176,0.7526850461776874,-11.807852753922997
13.24,-1.7752145926742673,0.8749565104223674,-11.793923925026677
13.25,-1.79556273659521,0.9954254741266406,-11.777104315554336
13.26,-1.827299689193571,1.1129410218372788,-11.757519603383809
13.27,-1.8700997207624868,1.226382646385464,-11.735321174289592
13.280000000000001,-1.92353392768026,1.3346703976150063,-11.710684680759124
13.290000000000001,-1.987074377327016,1.4367749213645897,-11.683808363460859
13.3,-2.0600993437806294,1.5317264765666456,-11.654911163711098
13.31,-2.141899091367604,1.6186238639766661,-11.624230687841994
13.32,-2.2316825617921245,1.696642568045911,-11.592020989879023
13.33,-2.3285847711675975,1.7650422437564603,-11.558550208968603
13.34,-2.4316748607601464,1.8231734140044946,-11.524098085580068
13.35,-2.5399647363970224,1.8704833746611507,-11.48895337245155
13.36,-2.652418241075973,1.906521245937212,-11.453411158404942
13.370000000000001,-2.767960723351736,1.930942038753738,-11.41777015017297
13.38,-2.885489025741654,1.9435098583267598,-11.382329895521703
13.39,-3.0038817003325837,1.9441000595755396,-11.347388011363078
13.4,-3.1220094280749318,1.9327004040502125,-11.31323741882339
13.41,-3.2387454920211334,1.909411180028127,-11.280163626797947
13.42,-3.3529763131817374,1.8744443139437328,-11.24844205877476
13.43,-3.4636118712606976,1.8281213967636747,-11.218335475282661
13.44,-3.569595804839201,1.770870717828519,-11.190091539535096
13.450000000000001,-3.669915365348855,1.7032233170810656,-11.163940477916885
13.46,-3.7636109442963575,1.625808039675745,-11.140092911422537
13.47,-3.849785087740868,1.5393456700211618,-11.11873787522981
13.48,-3.9276109666886114,1.444642187386358,-11.100041031323803
13.49,-3.9963401724758008,1.3425812159664452,-11.084143104270963
13.5,-4.055309817057229,1.234115706107494,-11.0711585425037
13.51,-4.103948808533707,1.1202589507980278,-11.061174432995735
13.52,-4.1417848067304215,1.0020754347252063,-11.054255787720718
13.530000000000001,-4.168444203183728,0.8806696134753701,-11.050427273257041
13.540000000000001,-4.18365982757244,0.7571765223670103,-11.049689366385522
13.55,-4.187272411017801,0.632750733198423,-11.05201415689344
13.56,-4.179231899961745,0.5085553691273358,-11.057344969187051
13.57,-4.159597819644522,0.3857508863218838,-11.065596940773972
13.58,-4.12853868306391,0.2654844245839003,-11.076657813660466
13.59,-4.086330313708429,0.1488786534825592,-11.090389035145225
13.6,-4.03335311599214,0.03702121308710696,-11.106627097018553
13.61,-3.970088326249411,-0.06904560468957979,-11.125185123469144
13.620000000000001,-3.897113335691589,-0.16833464534047815,-11.145854667466914
13.63,-3.815096052918468,-0.259923228209718,-11.168407727990724
13.64,-3.724788319884462,-0.34296181190456265,-11.192598973152629
13.65,-3.6270187183259868,-0.41668182831930445,-11.21816806995736
13.66,-3.522684551497269,-0.48040283677128304,-11.24484218658613
13.67,-3.4127430558842025,-0.5335387875327049,-11.272338641772778
13.68,-3.298202316669404,-0.5756032682361785,-11.300367568654753
13.69,-3.1801115221466945,-0.6062138629513938,-11.328634696768194
13.700000000000001,-3.0595509454679886,-0.6250954330637042,-11.356844140215205
13.71,-2.9376216282209135,-0.6320823635964803,-11.384701200837354
13.72,-2.8154349509459315,-0.627119733694798,-11.411915136214775
13.73,-2.6941021265355998,-0.6102634253959891,-11.43820188381088
13.74,-2.5747237702014765,-0.5816791515326124,-11.463286700871993
13.75,-2.4583796197688357,-0.5416404319217836,-11.48690670247676
13.76,-2.3461185298714256,-0.4905255798203909,-11.508813268715533
13.77,-2.238948814369966,-0.4288136841982638,-11.52877430213025
13.780000000000001,-2.1378290329036083,-0.35707962267991644,-11.546576312717038
13.790000000000001,-2.043659346214085,-0.2759882695815494,-11.56202630643534
13.8,-1.9572734606268438,-0.18628784196790485,-11.574953470414307
13.81,-1.8794327570829237,-0.08880216359909121,-11.585216391589267
13.82,-1.810815365611579,0.015576364461274472,-11.592687539817643
13.83,-1.7520144357883303,0.1258963026272057,-11.597269898797633
13.84,-1.7035321282258047,0.24115603903861402,-11.598893589797441
13.85,-1.6657754410338967,0.3603132421122984,-11.597515787699765
13.86,-1.6390531112552607,0.48229459681939757,-11.593120938573513
13.870000000000001,-1.62357342260416,0.6060058494292843,-11.58572072494934
13.88,-1.619443004583288,0.7303418299846357,-11.575353775774733
13.89,-1.6266665569443832,0.8541965403974265,-11.562085133227136
13.9,-1.6451475187955102,0.9764731424361057,-11.546005481115534
13.91,-1.674689647505164,1.0960937110957178,-11.527230152072582
13.92,-1.7149995082635283,1.2120088408636185,-11.505897907788324
13.93,-1.7656898000666774,1.323206739207992,-11.482169533902184
13.94,-1.8262835021385329,1.4287219694380253,-11.456226243582067
13.950000000000001,-1.8962187810010616,1.5276436739684622,-11.428267915338495
13.96,-1.9748545943748181,1.6191231939972395,-11.398511186927045
13.97,-2.0614769528502346,1.702381075983748,-11.367187415859442
13.98,-2.155305741344609,1.7767133700840414,-11.334540537354213
13.99,-2.255502063849226,1.8414971941196738,-11.300824831366631
14.0,-2.361175997126284,1.8961955352163684,-11.266302628643746
14.01,-2.47139473215484,1.9403612156824468,-11.231241967992103
14.02,-2.5851909678591705,1.9736400675398245,-11.195914234244546
14.030000000000001,-2.7015715229292185,1.9957732411879345,-11.160591792636158
14.040000000000001,-2.8195260602160097,2.006598676556746,-11.125545643852675
14.05,-2.9380358702457605,2.006051721476677,-11.091043115168386
14.06,-3.0560826117982782,1.9941649198205909,-11.057345612136112
14.07,-3.172656962898968,1.9710669698724588,-11.024706443411604
14.08,-3.2867670741322734,1.9369808854643475,-10.99336874449814
14.09,-3.3974468154481943,1.8922213875608462,-10.963563500746877
14.1,-3.5037647366840607,1.8371917883842417,-10.935511773957183
14.11,-3.60482894479615,1.772379333624182,-10.909412651552454
14.120000000000001,-3.699795921253561,1.698350874022921,-10.885448258364063
14.13,-3.7878776032363346,1.615747680797899,-10.863783945192825
14.14,-3.868346976723387,1.5252794362393631,-10.84456517192777
14.15,-3.9405437368466742,1.4277179234083726,-10.82791641813763
14.16,-4.003879105165536,1.3238901279615398,-10.813940355999051
14.17,-4.057840239527216,1.214671139716493,-10.802717131453702
14.18,-4.101993914693602,1.1009766409803783,-10.794303862413678
14.19,-4.135989450427418,0.9837551537020409,-10.788734348218075
14.200000000000001,-4.159561164904794,0.8639800805896657,-10.786018907426723
14.21,-4.172529731463298,0.7426416438216292,-10.786144517807152
14.22,-4.174803259375176,0.620738782496345,-10.789075016441398
14.23,-4.166377423456574,0.499271023966779,-10.794751555666398
14.24,-4.147334975456425,0.37923042457105594,-10.803093212148394
14.25,-4.117844551270226,0.26159365936243684,-10.81399776997327
14.26,-4.078158820858658,0.14731425561045203,-10.82734266460383
14.27,-4.028611991562669,0.03731511405937747,-10.842986077086271
14.280000000000001,-3.969616689087537,-0.06751870859401607,-10.860768173317819
14.290000000000001,-3.90166023008399,-0.16634682367385967,-10.880512478243904
14.3,-3.8253003743409923,-0.2583799680767533,-10.902027361218593
14.31,-3.7411605381752344,-0.34288602308565674,-10.92510763485597
14.32,-3.649924526533829,-0.41919553872066134,-10.949536248889668
14.33,-3.5523308372914872,-0.48670670858616427,-10.97508606233107
14.34,-3.449166563917168,-0.5448898392166195,-11.001521688237387
14.35,-3.3412609720374977,-0.593291199900989,-11.028601386159712
14.36,-3.229478781104664,-0.631536268116098,-11.05607899468416
14.370000000000001,-3.1147132073410857,-0.6593323476237053,-11.083705888037331
14.38,-2.997878821219617,-0.6764705402748397,-11.11123294190265
14.39,-2.8799045985262235,-0.6828269831820386,-11.138413734095305
14.4,-2.7617267582109037,-0.678363454769203,-11.165007136944125
14.41,-2.64427895454355,-0.6631279268452817,-11.19076977696743
14.42,-2.5284880316981555,-0.6372531787092804,-11.215469845239657
14.43,-2.4152656661993204,-0.6009557109732534,-11.238884477465254
14.44,-2.3055013054567306,-0.5545337743189904,-11.260801462741911
14.450000000000001,-2.200055265519747,-0.49836479659862126,-11.281020873971654
14.46,-2.099752009811179,-0.4329021603951514,-11.299356612141512
14.47,-2.0053740139019482,-0.3586714077241103,-11.31563777012165
14.48,-1.9176556295731626,-0.2762659622392588,-11.329709959472464
14.49,-1.8372775636040855,-0.1863422882490391,-11.341436450350496
14.5,-1.7648616663776893,-0.08961457742786605,-11.350699199869965
14.51,-1.7009663245914375,0.01315094635625172,-11.35739970405843
14.52,-1.646082172437987,0.12114220388662586,-11.36145973468092
14.530000000000001,-1.6006285866130538,0.2335076527211929,-11.362821865836217
14.540000000000001,-1.564950531776862,0.3493630185620551,-11.361449884369897
14.55,-1.5393160418716128,0.4677983379704904,-11.357329018560653
14.56,-1.5239144240920066,0.5878850067095818,-11.350465982596804
14.57,-1.5188549166585381,0.7086830952423815,-11.34088888322585
14.58,-1.5241660485086845,0.829248774715787,-11.32864693981415
14.59,-1.539795689811224,0.948641493124628,-11.313810043679903
14.6,-1.5656116011071248,1.0659313778716066,-11.296468169988426
14.61,-1.6014026821837766,1.180206422423176,-11.276730624204546
14.620000000000001,-1.646880807847607,1.290579474425538,-11.254725148677222
14.63,-1.701683303829011,1.396195195821263,-11.230596863613252
14.64,-1.765375918928822,1.4962363777675822,-11.204507122425833
14.65,-1.8374563742298957,1.5899303303518353,-11.176632207918137
14.66,-1.9173584746554142,1.676554756144319,-11.14716191682716
14.67,-2.004456630170184,1.755443119290025,-11.116298069421935
14.68,-2.098070881455616,1.8259897033049226,-11.08425290534594
14.69,-2.1974730066018724,1.8876542685377846,-11.05125022684865
14.700000000000001,-2.301890873918712,1.939965740172956,-11.017517701044474
14.71,-2.410514598577038,1.9825255625451919,-10.983286079745792
14.72,-2.52250422673969,2.0150109546950756,-10.948792032695279
14.73,-2.636995612534142,2.037176967437462,-10.914273822622727
14.74,-2.7531071542873256,2.04885813537639,-10.879969463349859
14.75,-2.8699466463790193,2.049969496786283,-10.846114885933291
14.76,-2.986618170735935,2.0405069654620043,-10.812942133862297
14.77,-3.1022289581375695,2.020547095201488,-10.780677602076688
14.780000000000001,-3.215896236993195,1.9902462173775617,-10.74954031674954
14.790000000000001,-3.3267539656317218,1.949838959382285,-10.719740282399972
14.8,-3.4339593887809032,1.899636164935841,-10.691476910444772
14.81,-3.536699385951868,1.8400222380735636,-10.664937536065285
14.82,-3.634196567181584,1.7714519298678995,-10.640296033777815
14.83,-3.725715052995959,1.694446601174346,-10.617711546170892
14.84,-3.8105659057119103,1.6095899927870827,-10.59732733234874
14.85,-3.8881121765277857,1.5175235342819446,-10.57926974336244
14.86,-3.957773512654867,1.4189412443535052,-10.56364733604751
14.870000000000001,-4.019030312034908,1.3145842535303882,-10.550550126470613
14.88,-4.071427393133518,1.2052349913749918,-10.540048988877764
14.89,-4.1145771390004535,1.0917111043081096,-10.532195206904808
14.9,-4.14816211265973,0.974859137199206,-10.527020175652527
14.91,-4.171937121519193,0.8555480329959257,-10.524535257198448
14.92,-4.185730717208964,0.7346625082513246,-10.524731789626697
14.93,-4.1894461280206965,0.6130963459877556,-10.527581247757228
14.94,-4.183061616403809,0.4917456839326678,-10.53303555299828
14.950000000000001,-4.166630273667631,0.37150229901614973,-10.54102752881425
14.96,-4.140279244718294,0.2532469931666649,-10.551471497729752
14.97,-4.104208405525083,0.13784311594179607,-10.564264011718988
14.98,-4.058688501650354,0.026130237783035762,-10.579284712848214
14.99,-4.004059571339822,-0.08108173128157747,-10.596400385903891
15.0,-3.9407261832463467,-0.1830188183854148,-10.615458759295434
15.01,-3.869154979249474,-0.2789482826954176,-10.63629310220833
15.02,-3.7898716217861725,-0.3681835993503071,-10.658726277966714
15.030000000000001,-3.703456108205316,-0.450089360742283,-10.68257015590481
15.040000000000001,-3.61053821684054,-0.52408564278121,-10.70762705107437
15.05,-3.5117926311885466,-0.5896519129731332,-10.733691219961095
15.06,-3.407933774535855,-0.6463304786407421,-10.760550403352582
15.07,-3.299710390045968,-0.6937294483704002,-10.787987405902726
15.08,-3.187899914576162,-0.7315251863017209,-10.815781698706546
15.09,-3.073302698732629,-0.7594642448914833,-10.843711030421456
15.1,-2.956736090518881,-0.7773647794234427,-10.871553042520022
15.11,-2.8390284729938355,-0.7851174210621855,-10.899086864132908
15.120000000000001,-2.7210132515935936,-0.7826856283232119,-10.926094688548428
15.13,-2.603522853681737,-0.7701055077789377,-10.952363314706085
15.14,-2.487382806337884,-0.747485112505406,-10.977685637212174
15.15,-2.373405904904039,-0.7150032306167314,-11.001862082478477
15.16,-2.2623865209780676,-0.6729076852573648,-11.024701979202082
15.17,-2.1550950919143093,-0.6215131535949686,-11.046024853197839
15.18,-2.0522728344309127,-0.5611985292317411,-11.065661637132306
15.19,-1.9546267069441792,-0.4924038614340202,-11.08345579013916
15.200000000000001,-1.862824651417596,-0.4156268822144809,-11.099264320587112
15.21,-1.7774911620583456,-0.33141916114331216,-11.112958702095183
15.22,-1.699203203871872,-0.24038192831383523,-11.124425679137635
15.23,-1.6284864655020634,-0.14316155744952683,-11.133567965608753
15.24,-1.5658120442423364,-0.040444807623781207,-11.140304817426385
15.25,-1.5115935102560387,0.06704618917038577,-11.144572491378963
15.26,-1.4661844113874651,0.17855914408268075,-11.146324578431193
15.27,-1.429876201006259,0.29331698165294373,-11.14553221764539
15.280000000000001,-1.402896624173245,0.4105233307537234,-11.142184184890077
15.290000000000001,-1.3854091256767314,0.5293682508036792,-11.136289118482999
15.3,-1.3775110291739587,0.649033598279906,-11.127871095980645
15.31,-1.3792330826047707,0.7686986121937475,-11.116968616936427
15.32,-1.3905410107284264,0.8875458314290087,-11.1036395021913
15.33,-1.4113354936794957,1.0047664834288503,-11.08795787814622
15.34,-1.4414532301559086,1.1195658991564819,-11.070013577258422
15.35,-1.480668423326473,1.2311688065939206,-11.049911436402262
15.36,-1.5286946761728417,1.3388244313487403,-11.027770501144945
15.370000000000001,-1.5851872748497984,1.4418114101813893,-11.003723140522991
15.38,-1.6497458424151024,1.539442456308218,-10.977914080955467
15.39,-1.7219173420282625,1.6310687566026942,-10.950499365960452
15.4,-1.8011994065820813,1.7160840841238394,-10.921645248387206
15.41,-1.8870439735012272,1.7939285989721978,-10.891527022354023
15.42,-1.9788611763890607,1.8640922918188043,-10.860327810304193
15.43,-2.0760235033899734,1.9261180994106113,-10.828237300535342
15.44,-2.1778701555373545,1.9796046258584843,-10.795450456833134
15.450000000000001,-2.2837115926595435,2.024208493272293,-10.762166201345956
15.46,-2.3928342426236524,2.059646280942858,-10.72858608056825
15.47,-2.5045053176333183,2.08569606196368,-10.694912927338509
15.48,-2.6179777317763446,2.1021985366011338,-10.661349520607557
15.49,-2.732495058051548,2.109057731546793,-10.62809726168076
15.5,-2.8472965323589685,2.1062413083148215,-10.595354860829492
15.51,-2.961622062524059,2.0937804581249124,-10.56331704690613
15.52,-3.0747171283959425,2.071769310776151,-10.532173338128372
15.530000000000001,-3.185837688180467,2.0403640571017974,-10.502106822917424
15.540000000000001,-3.2942549390905995,1.9997816002011397,-10.473293010366852
15.55,-3.3992599722993275,1.9502978601053647,-10.445898726985545
15.56,-3.500168251893249,1.8922456890599395,-10.42008108348506
15.57,-3.596323904246174,1.826012442684487,-10.395986511134275
15.58,-3.6871038114494556,1.7520372381125355,-10.373749866438601
15.59,-3.771921643226245,1.6708078984407353,-10.353494129718312
15.6,-3.8502319709207637,1.5828577241623445,-10.335332116027763
15.610000000000001,-3.9215309682671573,1.4887612703066135,-10.319355430185055
15.620000000000001,-3.9853624138437627,1.3891311329777918,-10.305645361576646
15.63,-4.041319266560048,1.2846136358205584,-10.294268459065872
15.64,-4.089046111661668,1.1758845536561842,-10.285276151793775
15.65,-4.128241173965669,1.0636446680857399,-10.278704495496706
15.66,-4.1586579890985895,0.9486152032757378,-10.274574014066937
15.67,-4.180106730941848,0.8315331548925324,-10.272889635817805
15.68,-4.192455169352467,0.7131465429571433,-10.273640730152113
15.69,-4.195629253560653,0.5942096290267501,-10.276801243418545
15.700000000000001,-4.189613330314372,0.4754781158914255,-10.282329930114376
15.71,-4.174449990350468,0.35770437819842976,-10.290170678564614
15.72,-4.150239557747292,0.24163271845319761,-10.300252926996984
15.73,-4.117139207373535,0.1279947188428521,-10.312492170703518
15.74,-4.07536173916557,0.017504704376612112,-10.326790551144123
15.75,-4.025174014809653,-0.08914469730340244,-10.343037525694518
15.76,-3.966895055888137,-0.1912867657029858,-10.36111061310017
15.77,-3.900893823196122,-0.2882848519173878,-10.380876215141482
15.780000000000001,-3.827586700224879,-0.3795360944659547,-10.402190494366005
15.790000000000001,-3.747434713476814,-0.464475154396421,-10.42490031338955
15.8,-3.6609404660943294,-0.5425775518611952,-10.448844229420578
15.81,-3.5686448371714787,-0.6133627747516013,-10.473853534122494
15.82,-3.4711234595018245,-0.6763970887517358,-10.49975333321262
15.83,-3.3689829985540296,-0.731296045220288,-10.52636365922727
15.84,-3.2628572703251644,-0.7777266560896723,-10.553500606384555
15.85,-3.1534031949114705,-0.8154092616693434,-10.58097748892141
15.860000000000001,-3.041296634928595,-0.8441190428785416,-10.608606008295089
15.870000000000001,-2.9272281504849365,-0.8636871834861802,-10.63619742102982
15.88,-2.8118986731709614,-0.8740016883398534,-10.66356370675932
15.89,-2.6960151357007627,-0.8750078462734381,-10.69051872634797
15.9,-2.5802867049944656,-0.8667081895876928,-10.716881693120246
15.91,-2.4654191178927154,-0.8491625496179215,-10.742473221729469
15.92,-2.352110625143287,-0.8224873893639995,-10.767117579104154
15.93,-2.2410486930938407,-0.7868546320367034,-10.79064724666019
15.94,-2.1329053186415825,-0.7424905130990003,-10.812901962836568
15.950000000000001,-2.028332966821206,-0.6896739684120047,-10.833729677100099
15.96,-1.9279606964761407,-0.6287347145141231,-10.852987437723487
15.97,-1.832390391450207,-0.5600510228852612,-10.870542232574184
15.98,-1.742193248426672,-0.4840472271916443,-10.886271748955537
15.99,-1.6579063673959986,-0.4011909140206051,-10.900065086017873
16.0,-1.5800297321155707,-0.3119899446785408,-10.911823359462074
16.01,-1.5090232635649075,-0.21698918567889106,-10.92146026574168
16.02,-1.4453042332803938,-0.1167670589615469,-10.928902545168334
16.03,-1.389244918698475,-0.011931897662978183,-10.934090369822636
16.04,-1.341170559267989,0.09688184563881243,-10.936977645141061
16.05,-1.3013575939136088,0.20901754366402256,-10.937532229198005
16.06,-1.2700322183710828,0.32380043724040336,-10.935736063762882
16.07,-1.2473692493477668,0.4405417606625488,-10.931585220801765
16.080000000000002,-1.2334913002188814,0.5585429410657732,-10.925089863856005
16.09,-1.2284682837140002,0.67709981937752,-10.916274123767346
16.1,-1.2323172312544264,0.7955068847479048,-10.905175891556604
16.11,-1.2450024325451248,0.9130614732422919,-10.89184653078162
16.12,-1.2664358853780726,1.029067967806766,-10.876350509139451
16.13,-1.2964780632034103,1.1428418807523215,-10.858764955393486
16.14,-1.3349389800958438,1.2537138630498046,-10.839179143561223
16.15,-1.38157955104172,1.3610336039378315,-10.817693907222433
16.16,-1.436113237765256,1.4641735894561814,-10.794420988401301
16.17,-1.4982079659065255,1.5625326938189907,-10.769482326506072
16.18,-1.5674882951463582,1.655539591446718,-10.74300929238939
16.19,-1.643537836927726,1.7426559794216134,-10.715141869666535
16.2,-1.7259018959879782,1.823379575231486,-10.686027791745703
16.21,-1.8140911247689961,1.8972470705211195,-10.655824745468403
16.22,-1.9075824022705916,1.9638361511453224,-10.624691071596635
16.23,-2.0058237012988323,2.022768135572178,-10.592791223384868
16.240000000000002,-2.108237393757061,2.0737099574549838,-10.56029459026221
16.25,-2.214223513547222,2.1163758265060273,-10.527373505612044
16.26,-2.32316330816979,2.150528615719991,-10.494202245962983
16.27,-2.434422942043238,2.175981019651333,-10.460956002301167
16.28,-2.547357226951442,2.1925963704881637,-10.427809866665337
16.29,-2.6613134053985616,2.20028916960438,-10.394937821468929
16.3,-2.775634945072714,2.1990253145535363,-10.362511744347206
16.31,-2.8896653278256252,2.188822027708295,-10.33070043234634
16.32,-3.0027518151606705,2.16974749104234,-10.299668649604047
16.330000000000002,-3.1142491572414652,2.141920186359721,-10.269576207655184
16.34,-3.223523236875294,2.1055079589632175,-10.240577078681708
16.35,-3.3299546325720653,2.0607267960851336,-10.212818546879774
16.36,-3.4329420427447612,2.0078393406193764,-10.186440412388228
16.37,-3.531905608861346,1.9471531575734784,-10.16157423502746
16.38,-3.6262900798007527,1.8790187517669175,-10.13834263462773
16.39,-3.715567815139073,1.8038273575720127,-10.116858646533084
16.4,-3.7992416068926076,1.7220085142705686,-10.097225137115204
16.41,-3.876847317934258,1.6340274377527186,-10.079534278485447
16.42,-3.947956287592899,1.5403822195980341,-10.063867094848971
16.43,-4.012177548807595,1.4416008608719053,-10.050293066118972
16.44,-4.069159802245209,1.3382381590353154,-10.038869803956306
16.45,-4.118593156205512,1.2308724675556098,-10.029642795891204
16.46,-4.160210619510837,1.120102350687458,-10.02264521970513
16.47,-4.193789345026534,1.0065431511993186,-10.01789782747627
16.48,-4.2191516188762295,0.8908234889931751,-10.015408899538427
16.490000000000002,-4.236165588249205,0.7735817211094425,-10.015174268450437
16.5,-4.244745733460489,0.6554623680787499,-10.017177411109394
16.51,-4.244853082362792,0.5371125308231771,-10.02138960789146
16.52,-4.2364959327174745,0.41917850710286214,-10.02777314254882
16.53,-4.219727456976557,0.30230178592980983,-10.036273548806967
16.54,-4.19464678655784,0.18711593834304474,-10.046826232270693
16.55,-4.161398134363847,0.07424318804681554,-10.05935657469528
16.56,-4.12016951425089,-0.03570894811058761,-10.073779508796111
16.57,-4.071191485530348,-0.1421508797272033,-10.090000035242197
16.580000000000002,-4.014735664156068,-0.24451403038026695,-10.107913792995701
16.59,-3.951113024247258,-0.3422537914945811,-10.127407675711908
16.6,-3.8806720027271484,-0.434852314617162,-10.148360489546231
16.61,-3.803796414001744,-0.5218211484708591,-10.170643650648891
16.62,-3.720903193408313,-0.6027036935843488,-10.194121915920821
16.63,-3.6324399780962815,-0.6770774631249759,-10.218654144522317
16.64,-3.5388825468972978,-0.744556144618512,-10.244094083749932
16.65,-3.4407321290504034,-0.8047914627825761,-10.27029117635335
16.66,-3.3385125940215823,-0.8574747980356576,-10.297091385639288
16.67,-3.232767549771336,-0.9023386147878156,-10.324338030975678
16.68,-3.124057355601498,-0.9391576514407194,-10.351872631405648
16.69,-3.012956069083514,-0.967749852507506,-10.379535752610423
16.7,-2.900048348440953,-0.9879770986323653,-10.407167851193448
16.71,-2.785926322372828,-0.9997456854517186,-10.434610113217655
16.72,-2.671186441189388,-1.0030065681852889,-10.461705283425726
16.73,-2.5564263323962573,-0.9977553678466597,-10.488298479141722
16.740000000000002,-2.4422416797846576,-0.9840321454167057,-10.514237984158749
16.75,-2.329223124141557,-0.9619209493285608,-10.539376023205739
16.76,-2.2179532244101217,-0.9315491327003615,-10.563569507296668
16.77,-2.109003484198191,-0.893086453206333,-10.58668074910745
16.78,-2.0029314518244563,-0.8467439639464893,-10.608578146465172
16.79,-1.9002779194448935,-0.7927726962276689,-10.629136828032749
16.8,-1.8011003253805231,-0.7316956946149081,-10.648373240021852
16.81,-1.706231969503337,-0.6635749152673498,-10.666050834734113
16.82,-1.615182088205262,-0.5890654971728237,-10.68234932699156
16.830000000000002,-1.5289336673344978,-0.5081712800921091,-10.697028031695911
16.84,-1.448427397266076,-0.4211111995303129,-10.709856150707685
16.85,-1.3740915723979814,-0.3283368292528898,-10.720748672347037
16.86,-1.3063219676901485,-0.2303306569074305,-10.729632393759834
16.87,-1.2454792676724615,-0.12760342529304378,-10.736444883254858
16.88,-1.1918870235601704,-0.020691299896079318,-10.741134835666216
16.89,-1.1458298641098132,0.08984711888205059,-10.743662355725752
16.9,-1.1075519359145576,0.20343391428909938,-10.743999174282298
16.91,-1.0772555785612046,0.3194750883373688,-10.74212879665153
16.92,-1.0551002517288763,0.43736388193718245,-10.738046580844088
16.93,-1.0412017124562059,0.556484171306288,-10.731759746378804
16.94,-1.035631455100882,0.6762139036608369,-10.723287312952936
16.95,-1.038416410135565,0.7959285627313818,-10.71265997030295
16.96,-1.049538904692158,0.915004643640633,-10.699919879713178
16.97,-1.0689368873462584,1.0328230980468998,-10.685120409152727
16.98,-1.0965044100131158,1.1487727503758718,-10.668325803479123
16.990000000000002,-1.1320923648505345,1.262253642788813,-10.649610793093153
17.0,-1.1755094697770117,1.3726803072722231,-10.629060142548731
17.01,-1.2265234935582714,1.4794849273412487,-10.606768143921487
17.02,-1.2848627143684035,1.5821203880175225,-10.582838056386684
17.03,-1.3502175955817866,1.6800631761785012,-10.557381498695056
17.04,-1.422242669311665,1.7728161278211405,-10.530517797077778
17.05,-1.500558617624639,1.8599110101038798,-10.502373291835957
17.06,-1.584754528551849,1.9409109077288307,-10.47308061057326
17.07,-1.6743903207598687,2.0154124173243644,-10.442777909257682
17.080000000000002,-1.7689993101461257,2.0830476253524246,-10.411608089600705
17.09,-1.8680909092980333,2.1434858693853536,-10.379717995040808
17.1,-1.9711534370140331,2.196435269129406,-10.347257592087745
17.11,-2.077657021707751,2.2416440261975565,-10.314379141061016
17.12,-2.187056575621466,2.278901470635174,-10.281236364369304
17.13,-2.2987948260611044,2.3080388788346258,-10.247983613044244
17.14,-2.412306051795065,2.3289302010290998,-10.21477760658035
17.150000000000002,-2.5270174204509908,2.3414919699252215,-10.181769915974545
17.16,-2.642353311126799,2.3456836865254744,-10.149110830201066
17.17,-2.7577384489420957,2.341507644431285,-10.116949070059473
17.18,-2.8726006838715397,2.3290085098856443,-10.085429998684875
17.19,-2.9863740006733517,2.308272704526178,-10.05469487914319
17.2,-3.0985013659737968,2.279427538968031,-10.024880191456951
17.21,-3.2084375507589575,2.2426401611205433,-9.996116965224193
17.22,-3.315651835318014,2.1981163001248993,-9.968530155054049
17.23,-3.4196306039580433,2.1460988130628866,-9.942238056509987
17.240000000000002,-3.519879790514689,2.08686605312681,-9.917351771861009
17.25,-3.615927204776626,2.0207300754714237,-9.89397471559259
17.26,-3.7073247012094073,1.9480346851981594,-9.872202170542495
17.27,-3.7936501782288397,1.8691533516067376,-9.852120895999056
17.28,-3.8745070595580624,1.7844896399173353,-9.833809235923956
17.29,-3.949533887593112,1.694466663934855,-9.817335268710448
17.3,-4.018398512080572,1.599530683089973,-9.802758098715678
17.31,-4.080796830099122,1.5001540075207014,-9.790128004760076
17.32,-4.136461454679007,1.3968226070520973,-9.779484941239911
17.330000000000002,-4.185158830302353,1.290038168242407,-9.770859161917375
17.34,-4.226690497228927,1.1803147535443699,-9.764271092847668
17.35,-4.2608936011272425,1.0681761767587763,-9.759731358358211
17.36,-4.287641238141617,0.9541533503951178,-9.757240851018226
17.37,-4.306842618046414,0.838781632467233,-9.756790848670866
17.38,-4.318443040641066,0.7225982043701467,-9.758363178010828
17.39,-4.322423695251969,0.6061394897024455,-9.761930421394382
17.400000000000002,-4.318801289638877,0.489938626466875,-9.767456164525665
17.41,-4.30762750569386,0.37452297984421923,-9.774895286938781
17.42,-4.28898830480632,0.26041176364073576,-9.784194284240309
17.43,-4.263003079036798,0.14811372580909565,-9.795291626703774
17.44,-4.22982384275729,0.03812546725501055,-9.808118068892915
17.45,-4.18963392369711,-0.06907275536172558,-9.822599533511845
17.46,-4.142646433647534,-0.17301599176405366,-9.83865191484238
17.47,-4.089102905735878,-0.2732585823236461,-9.856184488331728
17.48,-4.0292724024238336,-0.3693752679130553,-9.875101992949055
17.490000000000002,-3.963449616266654,-0.46096289673657065,-9.89530385992355
17.5,-3.8919532120844322,-0.5476419330966649,-9.916684732224269
17.51,-3.8151240929873382,-0.6290578287551498,-9.939134995544475
17.52,-3.7333235715746964,-0.7048822656010384,-9.962541326915193
17.53,-3.6469315287408777,-0.7748142318045956,-9.986787235490217
17.54,-3.5563446175178837,-0.8385809659133654,-10.011753580552648
17.55,-3.4619740926251867,-0.8959388144824811,-10.037319191406493
17.56,-3.36424399107906,-0.9466738488308628,-10.063361371392292
17.57,-3.2635891898178717,-0.9906024140091756,-10.089756431752136
17.580000000000002,-3.160453304444156,-1.0275715206841773,-10.116380262181377
17.59,-3.0552867107306363,-1.0574590730675653,-10.143108856917332
17.6,-2.9485446625344993,-1.0801740234980697,-10.169818806955242
17.61,-2.8406852099055357,-1.0956563317134451,-10.196387840438506
17.62,-2.7321672773493906,-1.1038768048145209,-10.22269531070675
17.63,-2.623448858945506,-1.1048369113566983,-10.248622646694171
17.64,-2.5149849906263757,-1.098568299078686,-10.274053856123938
17.650000000000002,-2.4072260197517608,-1.0851323490466527,-10.298875942503676
17.66,-2.300615808019972,-1.064619553415037,-10.322979333968256
17.67,-2.1955900192251123,-1.0371488105283886,-10.346258283726847
17.68,-2.0925744571869505,-1.0028666085389215,-10.368611251565254
17.69,-1.9919834763752482,-0.9619461205234687,-10.389941260924397
17.7,-1.8942184613113304,-0.9145862104344427,-10.410156232886278
17.71,-1.7996663815823657,-0.8610103575485316,-10.42916929567591
17.72,-1.7086984273913914,-0.8014655064057876,-10.446899068845394
17.73,-1.621668718310583,-0.7362208404922155,-10.463269924038512
17.740000000000002,-1.538913104640422,-0.665566498109451,-10.478212218183709
17.75,-1.4607480498758618,-0.5898122256026882,-10.491662502031797
17.76,-1.3874698960822431,-0.5092859145355466,-10.503564824647308
17.77,-1.3193536019116658,-0.4243322239845232,-10.5138696624559
17.78,-1.2566511054634275,-0.3353112833026116,-10.522530978906884
17.79,-1.1995919485705446,-0.24259684979159568,-10.529511662098528
17.8,-1.1483820549220676,-0.14657488459704426,-10.534781445436554
17.81,-1.1032031609874846,-0.04764197769511089,-10.53831696045905
17.82,-1.0642123422209215,0.05379624427562181,-10.54010176411241
17.830000000000002,-1.0315416340903987,0.15732673159762273,-10.540126340526834
17.84,-1.0052977289190668,0.2625306095522341,-10.538388082378356
17.85,-0.9855617962371633,0.36898481834335145,-10.534891240735329
17.86,-0.9723893801506402,0.4762637206312116,-10.529646855181008
17.87,-0.9658103868159501,0.5839407064722274,-10.522672660903062
17.88,-0.9658291162771616,0.6915897679035132,-10.513992982882508
17.89,-0.9724244904409955,0.7987871187206727,-10.503638584547168
17.900000000000002,-0.9855503065241318,0.9051127299831347,-10.491646510051428
17.91,-1.0051354828800934,1.010151842721669,-10.478059923610743
17.92,-1.0310846036105048,1.1134965006826083,-10.462927885342317
17.93,-1.063278356526454,1.2147469890163445,-10.446305147223413
17.94,-1.1015741236531347,1.313513261186169,-10.42825191544346
17.95,-1.1458066360233214,1.4094163203457244,-10.408833597949409
17.96,-1.1957887118235513,1.5020895517149584,-10.388120534005585
17.97,-1.251312059793783,1.5911800027964682,-10.366187709584509
17.98,-1.312148152162276,1.676349610432962,-10.34311445795045
17.990000000000002,-1.3780491623795097,1.757276366027864,-10.318984147249923
18.0,-1.4487489646038103,1.8336554186327338,-10.293883855869097
18.01,-1.5239641940446997,1.9052001166125874,-10.267904035671128
18.02,-1.6033953572104511,1.9716429784062832,-10.241138166372183
18.03,-1.6867279976748488,2.032736593556836,-10.21368239989185
18.04,-1.7736339157753958,2.0882544390304147,-10.185635196732967
18.05,-1.863772411118555,2.1379916421762934,-10.15709695735449
18.06,-1.9567915893807566,2.1817656385001674,-10.128169645914651
18.07,-2.052329683614087,2.2194167717671585,-10.098956411397394
18.080000000000002,-2.1500179708719616,2.250809150378031,-10.069567203313674
18.09,-2.2494777331987112,2.2758300467898995,-10.040101280349838
18.1,-2.350325618725903,2.2943911536454933,-10.01066212144049
18.11,-2.4521742234415895,2.3064286363227535,-9.981353781937166
18.12,-2.5546332869586688,2.3119032392708774,-9.952279587043249
18.13,-2.657311134692229,2.310800359804982,-9.92354175423218
18.14,-2.7598161225354296,2.303130033659812,-9.89524102028466
18.150000000000002,-2.8617580763759953,2.2889268311501314,-9.867476275083561
18.16,-2.96274972408171,2.2682496658499547,-9.8403442025676
18.17,-3.0624081168449613,2.2411815162967224,-9.813938929557022
18.18,-3.160356027101019,2.207829059634827,-9.788351686089603
18.19,-3.2562233279872737,2.168322221172449,-9.76367047540037
18.2,-3.349648341348981,2.1228136393436303,-9.73997975721241
18.21,-3.4402791528659447,2.0714780490697438,-9.717360144411042
18.22,-3.5277748914812372,2.0145115852229933,-9.69588811366309
18.23,-3.611806963687487,1.9521310087038204,-9.675635732430843
18.240000000000002,-3.692060240364937,1.8845728584030361,-9.656670402709604
18.25,-3.7682341956048453,1.812092530792183,-9.639054621399126
18.26,-3.8400439842891383,1.7349632927641054,-9.622845760699027
18.27,-3.907221465469187,1.6534752282328775,-9.608095866295718
18.28,-3.969516153262151,1.5679341283388994,-9.594851477990728
18.29,-4.026696115223665,1.478660317429077,-9.583153467234785
18.3,-4.078548784248767,1.3859874353849566,-9.573036900201762
18.31,-4.124881705229474,1.290261168298573,-9.564530920536258
18.32,-4.16552320373041,1.1918379369592158,-9.557658654846575
18.330000000000002,-4.200322974946775,1.0910835482194536,-9.55243714105974
18.34,-4.229152589056469,0.9883718171911072,-9.548877280269759
18.35,-4.251905919912789,0.8840831544366565,-9.546983810198254
18.36,-4.268499481798801,0.7786031397837869,-9.546755303572619
18.37,-4.278872683707204,0.6723210761484804,-9.548184188872476
18.38,-4.2829879962129205,0.5656285332253752,-9.551256794311008
18.39,-4.280831184339435,0.4589179258797284,-9.555954014537779
18.400000000000002,-4.272411447768524,0.3525810845240843,-9.562251964029482
18.41,-4.257759953743602,0.24700748324239585,-9.57011678083083
18.42,-4.23693133364506,0.1425831961575824,-9.579511286327769
18.43,-4.2100028113382795,0.03968932447700371,-9.5903927556098
18.44,-4.1770744589596855,-0.06129680359983995,-9.602712808216152
18.45,-4.1382668933503535,-0.1600119129854563,-9.616418525173305
18.46,-4.093722087578224,-0.2560990403895946,-9.631451869127215
18.47,-4.043604014137508,-0.3492079691319967,-9.647749556202106
18.48,-3.9880967456919483,-0.4390013689850436,-9.66524386427374
18.490000000000002,-3.927401344207863,-0.5251593625133716,-9.683863668451831
18.5,-3.861738302622771,-0.6073731105945381,-9.703533510504647
18.51,-3.791347258337107,-0.6853466248023811,-9.72417377768063
18.52,-3.7164831027313143,-0.7588024061502596,-9.745701991146221
