t,ax,ay,az
0,-4.393800000000001,-4.882000000000001,-4.393800000000001
0.01,-4.882000000000001,-3.9056,-3.4174
0.02,-4.882000000000001,-4.393800000000001,-3.9056
0.03,-4.882000000000001,-3.4174,-3.9056
0.04,-4.393800000000001,-4.393800000000001,-3.9056
0.05,-4.882000000000001,-3.9056,-4.393800000000001
0.06,-2.4410000000000003,-5.8584000000000005,-0.4882
0.07,7.8112,-14.1578,13.6696
0.08,16.5988,-22.4572,27.8274
0.09,26.3628,-30.2684,40.0324
0.1,40.5206,-42.961600000000004,62.4896
0.11,41.0088,-43.938,64.9306
0.12,41.9852,-44.9144,66.3952
0.13,44.4262,-46.379000000000005,67.3716
0.14,43.938,-47.3554,69.3244
0.15,45.4026,-47.3554,69.8126
0.16,43.4498,-46.379000000000005,67.8598
0.17,41.9852,-42.961600000000004,63.466
0.18,39.544200000000004,-41.497,62.001400000000004
0.19,37.5914,-41.0088,59.0722
0.2,36.1268,-39.056000000000004,55.1666
0.21,36.615,-38.5678,55.1666
0.22,36.615,-39.056000000000004,55.6548
0.23,36.1268,-39.544200000000004,56.6312
0.24,36.1268,-40.0324,57.119400000000006
0.25,37.1032,-39.056000000000004,56.6312
0.26,36.1268,-39.544200000000004,57.119400000000006
0.27,37.5914,-40.0324,57.119400000000006
0.28,37.1032,-40.0324,58.095800000000004
0.29,36.615,-40.0324,57.607600000000005
0.3,38.0796,-40.0324,58.095800000000004
0.31,38.0796,-41.0088,59.5604
0.32,37.1032,-39.056000000000004,58.584
0.33,37.1032,-41.0088,58.095800000000004
0.34,38.5678,-41.0088,58.584
0.35000000000000003,37.5914,-40.5206,59.0722
0.36,38.0796,-41.0088,58.584
0.37,38.5678,-41.497,58.095800000000004
0.38,39.056000000000004,-41.0088,59.0722
0.39,38.5678,-41.0088,59.0722
0.4,39.056000000000004,-41.497,59.5604
0.41000000000000003,39.544200000000004,-41.9852,60.5368
0.42,39.544200000000004,-41.9852,60.5368
0.43,39.544200000000004,-41.9852,60.5368
0.44,39.544200000000004,-41.9852,61.025000000000006
0.45,39.544200000000004,-41.0088,60.5368
0.46,39.544200000000004,-41.497,61.025000000000006
0.47000000000000003,39.544200000000004,-42.961600000000004,61.025000000000006
0.48,40.5206,-41.9852,61.025000000000006
0.49,39.544200000000004,-42.473400000000005,62.001400000000004
0.5,40.5206,-42.961600000000004,62.001400000000004
0.51,40.5206,-41.9852,61.513200000000005
0.52,40.5206,-42.473400000000005,62.9778
0.53,40.5206,-41.9852,62.001400000000004
0.54,39.544200000000004,-42.961600000000004,62.001400000000004
0.55,40.0324,-42.473400000000005,62.9778
0.56,41.497,-43.4498,62.4896
0.5700000000000001,40.5206,-42.473400000000005,62.001400000000004
0.58,40.0324,-42.473400000000005,62.4896
0.59,41.0088,-43.938,62.001400000000004
0.6,41.497,-43.938,62.9778
0.61,41.0088,-43.938,62.9778
0.62,41.9852,-43.938,62.9778
0.63,41.497,-44.4262,62.9778
0.64,42.473400000000005,-43.4498,62.4896
0.65,41.0088,-43.4498,62.9778
0.66,41.0088,-43.938,63.466
0.67,41.0088,-43.4498,62.4896
0.68,41.0088,-43.4498,62.001400000000004
0.6900000000000001,41.9852,-42.961600000000004,62.9778
0.7000000000000001,41.9852,-43.4498,63.9542
0.71,41.497,-44.4262,63.9542
0.72,42.473400000000005,-43.4498,62.9778
0.73,41.9852,-43.938,63.9542
0.74,42.473400000000005,-43.938,64.4424
0.75,41.9852,-44.4262,63.9542
0.76,41.9852,-43.938,63.466
0.77,41.9852,-43.4498,64.4424
0.78,42.961600000000004,-43.4498,64.9306
0.79,42.473400000000005,-44.4262,64.4424
0.8,41.9852,-43.4498,64.9306
0.81,42.961600000000004,-43.4498,64.9306
0.8200000000000001,42.961600000000004,-44.9144,64.4424
0.8300000000000001,42.473400000000005,-44.4262,63.9542
0.84,42.473400000000005,-43.938,64.9306
0.85,41.9852,-45.4026,65.907
0.86,42.473400000000005,-43.4498,65.4188
0.87,43.938,-44.9144,65.4188
0.88,42.473400000000005,-43.938,65.4188
0.89,43.4498,-43.4498,64.9306
0.9,42.961600000000004,-44.4262,65.907
0.91,42.473400000000005,-44.4262,66.3952
0.92,43.4498,-43.938,65.4188
0.93,43.4498,-44.4262,66.3952
0.9400000000000001,43.938,-44.9144,65.4188
0.9500000000000001,42.473400000000005,-43.938,66.3952
0.96,43.4498,-44.4262,65.907
0.97,42.961600000000004,-44.4262,65.907
0.98,43.938,-44.4262,66.88340000000001
0.99,44.4262,-43.938,66.3952
1.0,43.938,-44.4262,66.88340000000001
1.01,43.4498,-44.9144,66.88340000000001
1.02,43.938,-44.4262,67.3716
1.03,43.4498,-44.4262,66.88340000000001
1.04,43.4498,-44.4262,66.3952
1.05,43.938,-44.4262,67.8598
1.06,43.938,-44.4262,66.88340000000001
1.07,43.4498,-44.4262,67.8598
1.08,42.961600000000004,-44.4262,67.3716
1.09,43.938,-43.4498,67.3716
1.1,42.961600000000004,-43.938,66.88340000000001
1.11,43.4498,-43.938,67.3716
1.12,43.4498,-44.9144,67.8598
1.1300000000000001,42.961600000000004,-44.4262,67.8598
1.1400000000000001,42.473400000000005,-43.4498,67.8598
1.1500000000000001,42.961600000000004,-43.938,66.88340000000001
1.16,43.4498,-45.4026,68.348
1.17,41.9852,-45.4026,67.8598
1.18,42.961600000000004,-43.938,67.8598
1.19,42.961600000000004,-44.4262,66.88340000000001
1.2,41.9852,-44.4262,67.8598
1.21,42.473400000000005,-44.4262,67.3716
1.22,42.473400000000005,-43.938,66.88340000000001
1.23,42.473400000000005,-44.4262,67.8598
1.24,42.473400000000005,-44.4262,66.3952
1.25,42.473400000000005,-45.4026,67.8598
1.26,41.9852,-44.4262,67.8598
1.27,42.473400000000005,-44.9144,67.3716
1.28,41.9852,-45.4026,66.88340000000001
1.29,42.961600000000004,-44.4262,67.8598
1.3,42.473400000000005,-44.9144,67.3716
1.31,41.497,-44.9144,67.3716
1.32,42.473400000000005,-45.4026,67.3716
1.33,41.0088,-45.8908,66.3952
1.34,42.961600000000004,-43.938,67.3716
1.35,42.473400000000005,-45.4026,66.88340000000001
1.36,41.497,-44.9144,67.8598
1.37,42.473400000000005,-44.4262,66.88340000000001
1.3800000000000001,41.497,-44.9144,67.3716
1.3900000000000001,41.9852,-45.8908,67.3716
1.4000000000000001,42.961600000000004,-45.4026,67.8598
1.41,41.497,-45.4026,66.88340000000001
1.42,41.9852,-45.8908,66.88340000000001
1.43,41.0088,-45.8908,67.8598
1.44,41.9852,-44.9144,66.88340000000001
1.45,42.961600000000004,-45.4026,67.8598
1.46,41.9852,-45.8908,66.3952
1.47,41.9852,-44.9144,67.3716
1.48,41.9852,-44.4262,66.88340000000001
1.49,41.9852,-45.4026,66.88340000000001
1.5,41.9852,-44.9144,67.3716
1.51,41.9852,-46.379000000000005,66.88340000000001
1.52,42.961600000000004,-45.4026,66.88340000000001
1.53,41.9852,-45.4026,66.88340000000001
1.54,42.473400000000005,-44.4262,66.88340000000001
1.55,41.9852,-44.9144,66.3952
1.56,41.9852,-44.9144,66.88340000000001
1.57,41.0088,-44.9144,65.907
1.58,41.0088,-45.4026,65.907
1.59,41.9852,-45.8908,66.3952
1.6,41.497,-44.9144,66.3952
1.61,41.9852,-44.9144,66.88340000000001
1.62,41.0088,-45.8908,65.4188
1.6300000000000001,41.497,-45.8908,64.9306
1.6400000000000001,41.0088,-45.4026,65.907
1.6500000000000001,41.0088,-45.4026,65.4188
1.6600000000000001,41.0088,-45.8908,65.907
1.67,41.9852,-45.8908,65.4188
1.68,41.497,-45.8908,65.4188
1.69,41.9852,-46.379000000000005,64.9306
1.7,41.497,-45.4026,64.4424
1.71,41.497,-45.8908,64.9306
1.72,41.497,-45.4026,64.4424
1.73,41.497,-45.8908,64.4424
1.74,41.497,-44.4262,64.4424
1.75,41.497,-45.4026,63.9542
1.76,41.497,-44.9144,62.9778
1.77,41.497,-43.4498,63.466
1.78,41.9852,-44.9144,63.9542
1.79,42.473400000000005,-44.4262,63.9542
1.8,42.473400000000005,-44.9144,63.466
1.81,41.9852,-44.4262,63.466
1.82,41.497,-44.4262,64.9306
1.83,41.9852,-44.4262,64.4424
1.84,42.473400000000005,-44.9144,63.9542
1.85,41.9852,-43.4498,63.466
1.86,41.9852,-43.938,64.4424
1.87,41.9852,-44.9144,62.9778
1.8800000000000001,41.9852,-43.938,63.466
1.8900000000000001,41.497,-43.938,63.466
1.9000000000000001,41.0088,-43.4498,64.9306
1.9100000000000001,41.0088,-43.4498,63.466
1.92,41.9852,-43.4498,62.9778
1.93,41.9852,-42.473400000000005,63.9542
1.94,41.9852,-42.473400000000005,63.466
1.95,41.497,-42.961600000000004,63.466
1.96,41.9852,-41.9852,63.466
1.97,41.0088,-42.961600000000004,62.4896
1.98,41.497,-41.9852,64.4424
1.99,41.0088,-42.473400000000005,63.9542
2.0,40.0324,-41.9852,63.466
2.0100000000000002,40.5206,-42.473400000000005,64.4424
2.02,40.0324,-41.9852,63.466
2.0300000000000002,39.544200000000004,-41.9852,63.466
2.04,40.0324,-41.9852,62.9778
2.05,39.056000000000004,-41.9852,62.9778
2.06,40.0324,-41.9852,62.9778
2.07,39.056000000000004,-42.473400000000005,63.466
2.08,38.0796,-41.9852,62.9778
2.09,38.5678,-42.473400000000005,62.4896
2.1,39.056000000000004,-42.473400000000005,62.001400000000004
2.11,39.056000000000004,-42.961600000000004,62.001400000000004
2.12,39.544200000000004,-42.961600000000004,60.5368
2.13,38.0796,-42.961600000000004,62.001400000000004
2.14,39.056000000000004,-42.961600000000004,62.001400000000004
2.15,38.5678,-41.9852,61.513200000000005
2.16,39.056000000000004,-42.473400000000005,61.513200000000005
2.17,38.5678,-42.961600000000004,62.001400000000004
2.18,38.5678,-41.497,61.513200000000005
2.19,38.5678,-41.497,61.025000000000006
2.2,38.5678,-41.497,60.0486
2.21,39.056000000000004,-41.9852,60.5368
2.22,39.056000000000004,-41.9852,61.025000000000006
2.23,38.5678,-42.961600000000004,59.0722
2.24,38.5678,-42.473400000000005,60.5368
2.25,38.5678,-41.9852,60.0486
2.2600000000000002,37.5914,-41.9852,60.0486
2.27,37.1032,-41.497,60.0486
2.2800000000000002,39.544200000000004,-41.9852,59.0722
2.29,39.056000000000004,-42.473400000000005,59.5604
2.3000000000000003,38.0796,-41.9852,58.584
2.31,38.0796,-41.497,59.0722
2.32,38.5678,-41.0088,58.584
2.33,38.5678,-41.497,58.584
2.34,39.056000000000004,-41.9852,58.584
2.35,38.0796,-41.0088,58.584
2.36,38.0796,-41.0088,58.095800000000004
2.37,38.0796,-41.0088,58.584
2.38,38.0796,-40.5206,57.119400000000006
2.39,37.5914,-40.0324,58.095800000000004
2.4,38.5678,-40.5206,58.095800000000004
2.41,37.1032,-41.0088,57.607600000000005
2.42,38.5678,-41.0088,58.095800000000004
2.43,37.5914,-39.544200000000004,57.607600000000005
2.44,37.5914,-40.5206,58.095800000000004
2.45,37.5914,-39.544200000000004,57.119400000000006
2.46,37.5914,-39.544200000000004,58.095800000000004
2.47,37.5914,-39.056000000000004,58.095800000000004
2.48,37.1032,-40.0324,57.119400000000006
2.49,37.1032,-39.056000000000004,57.119400000000006
2.5,37.1032,-40.0324,57.607600000000005
2.5100000000000002,36.1268,-38.5678,57.607600000000005
2.52,35.638600000000004,-38.5678,57.607600000000005
2.5300000000000002,36.1268,-40.0324,58.095800000000004
2.54,36.615,-39.056000000000004,57.607600000000005
2.5500000000000003,35.638600000000004,-39.544200000000004,56.6312
2.56,36.1268,-39.544200000000004,58.095800000000004
2.57,36.1268,-39.544200000000004,57.119400000000006
2.58,36.1268,-40.0324,57.607600000000005
2.59,34.6622,-40.0324,56.6312
2.6,35.150400000000005,-40.0324,55.1666
2.61,36.1268,-41.0088,56.6312
2.62,35.150400000000005,-39.544200000000004,56.6312
2.63,35.638600000000004,-40.0324,55.6548
2.64,35.150400000000005,-39.544200000000004,56.143
2.65,36.1268,-39.544200000000004,55.6548
2.66,35.638600000000004,-38.5678,56.6312
2.67,36.1268,-38.5678,55.6548
2.68,35.638600000000004,-39.056000000000004,55.6548
2.69,35.150400000000005,-39.544200000000004,54.6784
2.7,36.1268,-39.544200000000004,55.1666
2.71,36.1268,-39.544200000000004,55.1666
2.72,35.638600000000004,-40.0324,55.1666
2.73,35.638600000000004,-39.544200000000004,54.6784
2.74,36.1268,-39.544200000000004,55.1666
2.75,37.1032,-38.5678,55.6548
2.7600000000000002,36.615,-38.5678,54.190200000000004
2.77,36.1268,-39.056000000000004,54.190200000000004
2.7800000000000002,36.1268,-39.056000000000004,55.1666
2.79,35.150400000000005,-38.0796,54.190200000000004
2.8000000000000003,36.1268,-39.056000000000004,54.6784
2.81,35.150400000000005,-38.5678,54.6784
2.82,35.150400000000005,-38.0796,54.190200000000004
2.83,35.638600000000004,-38.5678,55.1666
2.84,34.6622,-37.5914,54.6784
2.85,35.638600000000004,-39.056000000000004,55.1666
2.86,35.638600000000004,-38.5678,53.702000000000005
2.87,36.1268,-37.5914,53.702000000000005
2.88,35.150400000000005,-38.0796,54.190200000000004
2.89,35.638600000000004,-37.5914,54.190200000000004
2.9,35.638600000000004,-37.1032,54.190200000000004
2.91,35.638600000000004,-38.0796,53.2138
2.92,33.6858,-37.1032,54.190200000000004
2.93,34.6622,-37.5914,53.702000000000005
2.94,34.6622,-36.615,54.190200000000004
2.95,33.6858,-36.1268,53.702000000000005
2.96,33.1976,-36.615,53.702000000000005
2.97,33.6858,-37.5914,53.2138
2.98,32.7094,-37.1032,53.2138
2.99,33.1976,-37.1032,52.7256
3.0,34.174,-37.5914,51.7492
3.0100000000000002,32.2212,-36.1268,50.772800000000004
3.02,30.756600000000002,-35.150400000000005,49.796400000000006
3.0300000000000002,29.292,-34.6622,47.3554
3.04,28.803800000000003,-33.6858,44.9144
3.0500000000000003,27.8274,-32.7094,43.4498
3.06,27.3392,-31.733,41.9852
3.0700000000000003,26.3628,-29.292,40.5206
3.08,24.41,-28.803800000000003,39.056000000000004
3.09,23.433600000000002,-27.8274,37.1032
3.1,22.9454,-27.8274,35.150400000000005
3.11,21.969,-26.851000000000003,34.174
3.12,20.5044,-25.8746,31.733
3.13,19.528000000000002,-24.41,29.7802
3.14,18.5516,-24.41,28.3156
3.15,17.575200000000002,-22.4572,25.8746
3.16,16.1106,-20.9926,25.386400000000002
3.17,15.1342,-21.480800000000002,22.4572
3.18,14.1578,-20.0162,21.969
3.19,11.716800000000001,-18.0634,20.5044
3.2,11.2286,-17.575200000000002,19.528000000000002
3.21,10.740400000000001,-16.5988,18.0634
3.22,9.2758,-16.5988,16.1106
3.23,8.787600000000001,-15.1342,14.1578
3.24,7.8112,-13.6696,12.693200000000001
3.25,5.8584000000000005,-12.693200000000001,11.2286
3.2600000000000002,4.882000000000001,-10.2522,10.2522
3.27,2.9292000000000002,-10.740400000000001,6.8348
3.2800000000000002,2.9292000000000002,-9.764000000000001,6.3466000000000005
3.29,0.4882,-8.2994,4.882000000000001
3.3000000000000003,-0.9764,-6.3466000000000005,3.9056
3.31,-1.4646000000000001,-7.323,2.9292000000000002
3.3200000000000003,-1.4646000000000001,-6.8348,1.4646000000000001
3.33,-1.9528,-6.8348,0.9764
3.34,-3.4174,-6.8348,-0.4882
3.35,-2.4410000000000003,-6.3466000000000005,-1.4646000000000001
3.36,-3.4174,-6.3466000000000005,-1.4646000000000001
3.37,-3.4174,-4.393800000000001,-2.9292000000000002
3.38,-3.9056,-5.3702000000000005,-4.393800000000001
3.39,-4.393800000000001,-3.9056,-4.393800000000001
3.4,-5.3702000000000005,-3.4174,-5.8584000000000005
3.41,-4.393800000000001,-3.4174,-5.3702000000000005
3.42,-4.882000000000001,-3.4174,-5.8584000000000005
3.43,-4.882000000000001,-3.4174,-6.8348
3.44,-5.3702000000000005,-3.4174,-6.8348
3.45,-5.8584000000000005,-3.4174,-6.8348
3.46,-4.882000000000001,-3.4174,-7.323
3.47,-5.3702000000000005,-2.4410000000000003,-8.787600000000001
3.48,-5.3702000000000005,-2.4410000000000003,-7.8112
3.49,-5.3702000000000005,-1.4646000000000001,-7.8112
3.5,-6.8348,-1.4646000000000001,-8.2994
3.5100000000000002,-6.8348,-0.4882,-8.787600000000001
3.52,-7.323,-1.4646000000000001,-7.8112
3.5300000000000002,-7.323,-0.4882,-10.2522
3.54,-7.323,-0.4882,-8.787600000000001
3.5500000000000003,-7.8112,-0.4882,-9.2758
3.56,-7.323,0.0,-9.764000000000001
3.5700000000000003,-8.2994,0.0,-9.2758
3.58,-8.2994,-0.4882,-10.2522
3.59,-8.2994,0.4882,-10.2522
3.6,-8.787600000000001,0.0,-10.740400000000001
3.61,-8.787600000000001,0.0,-10.2522
3.62,-9.764000000000001,0.9764,-10.2522
3.63,-10.2522,0.9764,-11.716800000000001
3.64,-9.764000000000001,0.9764,-11.2286
3.65,-11.716800000000001,1.4646000000000001,-11.716800000000001
3.66,-10.2522,0.9764,-12.693200000000001
3.67,-10.2522,1.4646000000000001,-13.6696
3.68,-11.2286,0.4882,-13.6696
3.69,-10.2522,1.4646000000000001,-13.6696
3.7,-11.2286,0.4882,-14.1578
3.71,-11.716800000000001,0.4882,-13.6696
3.72,-10.740400000000001,1.4646000000000001,-15.6224
3.73,-11.2286,1.9528,-14.646
3.74,-11.2286,1.4646000000000001,-15.6224
3.75,-12.205,2.4410000000000003,-15.6224
3.7600000000000002,-11.716800000000001,1.9528,-16.5988
3.77,-12.205,2.9292000000000002,-16.5988
3.7800000000000002,-11.2286,3.4174,-16.5988
3.79,-11.716800000000001,2.4410000000000003,-16.1106
3.8000000000000003,-12.693200000000001,3.9056,-17.575200000000002
3.81,-11.716800000000001,3.9056,-17.087
3.8200000000000003,-12.205,3.9056,-17.575200000000002
3.83,-13.1814,3.9056,-18.5516
3.84,-13.1814,4.393800000000001,-18.0634
3.85,-13.6696,5.3702000000000005,-18.0634
3.86,-14.1578,5.3702000000000005,-18.5516
3.87,-14.1578,4.882000000000001,-18.5516
3.88,-14.1578,4.882000000000001,-18.0634
3.89,-14.646,4.393800000000001,-19.528000000000002
3.9,-69.8126,69.8126,-69.8126
3.91,-14.646,4.882000000000001,-19.528000000000002
3.92,-15.6224,4.882000000000001,-19.528000000000002
3.93,-15.6224,4.882000000000001,-20.0162
3.94,-14.646,4.882000000000001,-19.0398
3.95,-15.6224,4.393800000000001,-18.5516
3.96,-14.1578,4.882000000000001,-18.5516
3.97,-14.646,3.9056,-19.0398
3.98,-15.1342,4.393800000000001,-19.528000000000002
3.99,-14.646,4.882000000000001,-19.528000000000002
4.0,-15.6224,3.4174,-18.5516
4.01,-15.1342,3.9056,-18.5516
4.0200000000000005,-15.6224,3.4174,-19.0398
4.03,-14.1578,4.393800000000001,-20.5044
4.04,-14.646,3.9056,-20.0162
4.05,-13.6696,3.4174,-19.528000000000002
4.0600000000000005,-14.1578,3.4174,-19.0398
4.07,-14.1578,4.393800000000001,-20.0162
4.08,-13.6696,4.393800000000001,-19.0398
4.09,-14.1578,4.882000000000001,-20.0162
4.1,-13.6696,3.9056,-19.0398
4.11,-13.6696,4.393800000000001,-19.528000000000002
4.12,-13.6696,4.393800000000001,-19.528000000000002
4.13,-13.1814,4.393800000000001,-19.528000000000002
4.14,-13.1814,4.882000000000001,-19.528000000000002
4.15,-13.6696,3.9056,-19.528000000000002
4.16,-14.646,4.882000000000001,-20.0162
4.17,-14.1578,4.393800000000001,-19.0398
4.18,-13.1814,5.3702000000000005,-18.5516
4.19,-14.646,4.882000000000001,-20.5044
4.2,-14.1578,4.882000000000001,-19.528000000000002
4.21,-14.646,4.882000000000001,-19.0398
4.22,-14.1578,4.393800000000001,-18.5516
4.23,-14.1578,4.393800000000001,-18.5516
4.24,-14.646,3.9056,-19.0398
4.25,-14.646,4.882000000000001,-19.0398
4.26,-14.1578,4.882000000000001,-19.0398
4.2700000000000005,-13.6696,4.882000000000001,-19.0398
4.28,-14.1578,4.393800000000001,-18.5516
4.29,-14.1578,2.9292000000000002,-19.0398
4.3,-14.1578,5.3702000000000005,-19.0398
4.3100000000000005,-13.6696,3.9056,-18.0634
4.32,-14.1578,3.9056,-17.575200000000002
4.33,-13.6696,3.9056,-18.5516
4.34,-13.6696,3.9056,-19.0398
4.3500000000000005,-14.1578,4.393800000000001,-19.0398
4.36,-14.1578,4.393800000000001,-19.0398
4.37,-13.1814,2.9292000000000002,-19.528000000000002
4.38,-13.6696,3.4174,-19.0398
4.39,-14.1578,3.4174,-19.0398
4.4,-14.1578,4.393800000000001,-19.0398
4.41,-13.6696,3.9056,-19.528000000000002
4.42,-13.6696,3.4174,-20.0162
4.43,-13.1814,4.393800000000001,-19.528000000000002
4.44,-13.1814,4.393800000000001,-19.528000000000002
4.45,-12.693200000000001,3.9056,-19.0398
4.46,-13.1814,4.393800000000001,-19.0398
4.47,-12.693200000000001,4.393800000000001,-18.5516
4.48,-13.6696,4.882000000000001,-19.0398
4.49,-14.1578,4.393800000000001,-19.528000000000002
4.5,-13.6696,4.393800000000001,-18.0634
4.51,-13.6696,5.3702000000000005,-19.528000000000002
4.5200000000000005,-13.1814,3.9056,-17.087
4.53,-14.646,5.3702000000000005,-18.0634
4.54,-14.1578,4.882000000000001,-18.5516
4.55,-14.1578,4.882000000000001,-19.0398
4.5600000000000005,-13.6696,3.4174,-18.5516
4.57,-13.6696,4.882000000000001,-17.575200000000002
4.58,-14.646,4.393800000000001,-16.5988
4.59,-13.6696,4.393800000000001,-18.5516
4.6000000000000005,-13.6696,3.4174,-18.0634
4.61,-13.6696,3.4174,-17.575200000000002
4.62,-13.6696,3.4174,-18.5516
4.63,-14.646,4.393800000000001,-19.0398
4.64,-14.646,3.4174,-18.0634
4.65,-12.693200000000001,2.4410000000000003,-18.5516
4.66,-13.6696,3.9056,-18.0634
4.67,-13.6696,3.4174,-18.5516
4.68,-13.6696,3.4174,-18.5516
4.69,-13.1814,4.393800000000001,-18.5516
4.7,-13.6696,2.9292000000000002,-19.0398
4.71,-13.6696,3.4174,-19.0398
4.72,-13.6696,3.4174,-18.5516
4.73,-12.205,2.9292000000000002,-18.0634
4.74,-13.1814,3.9056,-18.5516
4.75,-13.1814,3.9056,-17.575200000000002
4.76,-12.693200000000001,3.4174,-18.0634
4.7700000000000005,-13.1814,4.393800000000001,-19.0398
4.78,-12.205,3.9056,-18.0634
4.79,-12.205,3.9056,-17.575200000000002
4.8,-12.205,4.393800000000001,-18.0634
4.8100000000000005,-12.693200000000001,4.393800000000001,-17.575200000000002
4.82,-13.1814,3.9056,-18.5516
4.83,-13.1814,4.882000000000001,-18.0634
4.84,-12.693200000000001,4.393800000000001,-19.0398
4.8500000000000005,-13.1814,4.393800000000001,-18.5516
4.86,-13.1814,4.393800000000001,-17.575200000000002
4.87,-14.1578,4.882000000000001,-18.5516
4.88,-14.646,4.882000000000001,-17.575200000000002
4.89,-14.646,4.393800000000001,-18.5516
4.9,-12.693200000000001,3.9056,-18.0634
4.91,-14.646,3.4174,-17.087
4.92,-13.6696,3.9056,-18.0634
4.93,-14.1578,3.4174,-17.575200000000002
4.94,-13.6696,4.393800000000001,-18.0634
4.95,-14.1578,3.4174,-18.5516
4.96,-13.6696,3.9056,-17.575200000000002
4.97,-14.1578,3.9056,-17.575200000000002
4.98,-13.6696,3.4174,-18.5516
4.99,-13.6696,3.4174,-17.575200000000002
5.0,-14.1578,3.4174,-18.0634
5.01,-13.6696,2.9292000000000002,-17.575200000000002
5.0200000000000005,-12.693200000000001,3.4174,-17.575200000000002
5.03,-13.1814,3.4174,-18.5516
5.04,-13.6696,3.4174,-18.5516
5.05,-13.1814,3.9056,-18.0634
5.0600000000000005,-13.6696,2.4410000000000003,-19.0398
5.07,-13.1814,3.9056,-18.0634
5.08,-13.1814,2.9292000000000002,-18.5516
5.09,-12.693200000000001,3.9056,-18.0634
5.1000000000000005,-13.1814,3.4174,-19.0398
5.11,-12.205,3.4174,-18.5516
5.12,-13.6696,3.4174,-19.528000000000002
5.13,-12.693200000000001,4.393800000000001,-18.0634
5.14,-12.693200000000001,3.9056,-18.5516
5.15,-13.6696,3.4174,-18.5516
5.16,-13.6696,3.9056,-17.575200000000002
5.17,-13.6696,3.9056,-18.0634
5.18,-13.1814,3.9056,-17.575200000000002
5.19,-13.6696,4.393800000000001,-16.5988
5.2,-13.1814,3.4174,-17.087
5.21,-12.205,3.4174,-17.575200000000002
5.22,-13.1814,3.4174,-17.087
5.23,-13.6696,3.4174,-17.575200000000002
5.24,-13.6696,3.4174,-16.5988
5.25,-12.693200000000001,4.393800000000001,-18.5516
5.26,-13.6696,3.9056,-16.1106
5.2700000000000005,-13.1814,4.393800000000001,-16.1106
5.28,-13.6696,3.4174,-17.087
5.29,-13.1814,2.9292000000000002,-17.575200000000002
5.3,-13.1814,3.9056,-17.575200000000002
5.3100000000000005,-14.1578,3.4174,-18.0634
5.32,-13.6696,2.4410000000000003,-17.087
5.33,-13.6696,3.4174,-18.0634
5.34,-13.1814,3.4174,-17.575200000000002
5.3500000000000005,-13.1814,2.9292000000000002,-17.575200000000002
5.36,-13.6696,2.4410000000000003,-18.0634
5.37,-13.6696,2.9292000000000002,-18.0634
5.38,-12.693200000000001,3.9056,-18.5516
5.39,-12.693200000000001,2.4410000000000003,-18.0634
5.4,-12.693200000000001,2.9292000000000002,-18.0634
5.41,-12.205,2.9292000000000002,-18.0634
5.42,-13.6696,2.4410000000000003,-17.575200000000002
5.43,-12.205,2.4410000000000003,-17.575200000000002
5.44,-12.693200000000001,2.9292000000000002,-17.575200000000002
5.45,-13.1814,3.4174,-17.575200000000002
5.46,-12.693200000000001,3.9056,-18.0634
5.47,-13.1814,4.393800000000001,-18.0634
5.48,-13.1814,3.9056,-18.0634
5.49,-12.693200000000001,3.4174,-18.0634
5.5,-11.2286,3.9056,-18.0634
5.51,-12.693200000000001,4.393800000000001,-17.087
5.5200000000000005,-12.693200000000001,3.9056,-17.575200000000002
5.53,-12.693200000000001,4.393800000000001,-17.575200000000002
5.54,-13.1814,3.9056,-17.087
5.55,-13.1814,3.4174,-17.087
5.5600000000000005,-12.205,2.4410000000000003,-16.5988
5.57,-13.1814,3.9056,-16.5988
5.58,-13.1814,3.4174,-17.087
5.59,-12.693200000000001,3.9056,-17.087
5.6000000000000005,-13.6696,3.4174,-17.087
5.61,-13.1814,4.393800000000001,-16.5988
5.62,-13.6696,3.4174,-17.575200000000002
5.63,-13.1814,3.9056,-16.5988
5.64,-12.693200000000001,2.9292000000000002,-17.087
5.65,-13.6696,2.9292000000000002,-17.087
5.66,-13.1814,2.9292000000000002,-17.575200000000002
5.67,-13.1814,3.4174,-17.087
5.68,-12.693200000000001,3.9056,-17.575200000000002
5.69,-12.205,3.4174,-17.575200000000002
5.7,-13.1814,2.9292000000000002,-18.0634
5.71,-13.1814,2.9292000000000002,-17.087
5.72,-12.693200000000001,2.9292000000000002,-17.575200000000002
5.73,-12.205,3.4174,-17.575200000000002
5.74,-13.6696,2.4410000000000003,-17.087
5.75,-12.693200000000001,3.4174,-18.0634
5.76,-13.6696,2.9292000000000002,-17.087
5.7700000000000005,-13.1814,1.9528,-17.575200000000002
5.78,-12.693200000000001,3.4174,-17.575200000000002
5.79,-12.693200000000001,2.4410000000000003,-16.5988
5.8,-12.205,2.9292000000000002,-17.087
5.8100000000000005,-13.1814,3.9056,-17.575200000000002
5.82,-12.205,3.9056,-17.575200000000002
5.83,-12.205,3.9056,-17.575200000000002
5.84,-12.205,3.4174,-17.087
5.8500000000000005,-11.716800000000001,3.4174,-17.575200000000002
5.86,-13.1814,2.4410000000000003,-17.087
5.87,-12.693200000000001,3.4174,-17.087
5.88,-11.716800000000001,3.9056,-17.087
5.89,-11.716800000000001,4.393800000000001,-17.087
5.9,-12.693200000000001,3.4174,-17.087
5.91,-12.693200000000001,3.9056,-16.5988
5.92,-13.1814,3.4174,-17.575200000000002
5.93,-13.6696,3.4174,-16.5988
5.94,-12.693200000000001,3.4174,-17.087
5.95,-13.1814,3.4174,-17.087
5.96,-13.6696,3.9056,-16.5988
5.97,-12.693200000000001,2.4410000000000003,-15.6224
5.98,-13.1814,3.4174,-15.1342
5.99,-14.1578,3.4174,-16.1106
6.0,-14.1578,3.4174,-17.575200000000002
6.01,-12.693200000000001,2.4410000000000003,-15.1342
6.0200000000000005,-13.1814,2.9292000000000002,-16.5988
6.03,-12.693200000000001,2.4410000000000003,-17.575200000000002
6.04,-13.1814,2.9292000000000002,-16.5988
6.05,-13.1814,2.4410000000000003,-15.6224
6.0600000000000005,-13.1814,2.9292000000000002,-16.1106
6.07,-12.693200000000001,2.9292000000000002,-17.575200000000002
6.08,-13.1814,2.9292000000000002,-17.087
6.09,-12.693200000000001,2.4410000000000003,-17.087
6.1000000000000005,-12.205,1.9528,-17.087
6.11,-12.693200000000001,2.4410000000000003,-17.575200000000002
6.12,-12.693200000000001,1.9528,-17.575200000000002
6.13,-11.716800000000001,2.9292000000000002,-17.087
6.140000000000001,-12.205,2.4410000000000003,-17.575200000000002
6.15,-13.1814,3.4174,-18.0634
6.16,-13.1814,2.9292000000000002,-16.5988
6.17,-12.205,3.9056,-16.5988
6.18,-11.716800000000001,2.9292000000000002,-16.5988
6.19,-11.716800000000001,2.9292000000000002,-17.575200000000002
6.2,-11.716800000000001,3.4174,-16.1106
6.21,-12.205,3.4174,-16.5988
6.22,-11.716800000000001,4.393800000000001,-16.1106
6.23,-12.205,3.9056,-16.5988
6.24,-13.1814,3.4174,-16.5988
6.25,-12.693200000000001,3.4174,-16.5988
6.26,-11.716800000000001,3.4174,-16.1106
6.2700000000000005,-12.693200000000001,2.9292000000000002,-17.087
6.28,-12.205,3.4174,-15.1342
6.29,-13.1814,3.9056,-15.6224
6.3,-13.1814,2.9292000000000002,-15.6224
6.3100000000000005,-12.205,3.4174,-16.1106
6.32,-13.1814,3.4174,-16.1106
6.33,-12.205,2.4410000000000003,-16.5988
6.34,-13.1814,2.9292000000000002,-17.087
6.3500000000000005,-11.716800000000001,2.9292000000000002,-16.1106
6.36,-12.693200000000001,1.9528,-16.5988
6.37,-12.205,3.4174,-15.6224
6.38,-12.205,2.9292000000000002,-16.5988
6.390000000000001,-13.6696,3.4174,-16.1106
6.4,-14.1578,2.4410000000000003,-15.6224
6.41,-12.693200000000001,2.9292000000000002,-17.087
6.42,-12.693200000000001,2.9292000000000002,-17.087
6.43,-13.1814,1.9528,-16.5988
6.44,-12.205,2.9292000000000002,-16.5988
6.45,-12.205,1.4646000000000001,-17.087
6.46,-12.693200000000001,2.4410000000000003,-16.5988
6.47,-12.693200000000001,2.4410000000000003,-16.1106
6.48,-12.205,2.4410000000000003,-17.087
6.49,-12.693200000000001,1.9528,-17.087
6.5,-11.716800000000001,2.4410000000000003,-17.087
6.51,-11.716800000000001,1.9528,-16.5988
6.5200000000000005,-12.693200000000001,1.9528,-16.1106
6.53,-11.2286,3.4174,-15.6224
6.54,-11.716800000000001,2.4410000000000003,-16.1106
6.55,-10.740400000000001,2.9292000000000002,-16.1106
6.5600000000000005,-12.205,2.9292000000000002,-17.087
6.57,-11.716800000000001,1.9528,-17.087
6.58,-12.205,2.4410000000000003,-16.1106
6.59,-11.716800000000001,2.9292000000000002,-16.1106
6.6000000000000005,-12.205,2.4410000000000003,-17.087
6.61,-11.2286,3.4174,-16.1106
6.62,-11.716800000000001,3.4174,-16.5988
6.63,-11.716800000000001,4.393800000000001,-16.1106
6.640000000000001,-11.716800000000001,3.4174,-16.1106
6.65,-12.205,2.9292000000000002,-16.1106
6.66,-11.716800000000001,3.9056,-15.6224
6.67,-12.205,3.4174,-15.6224
6.68,-12.693200000000001,2.9292000000000002,-16.5988
6.69,-13.1814,2.9292000000000002,-15.6224
6.7,-12.205,2.9292000000000002,-15.1342
6.71,-12.205,2.4410000000000003,-15.6224
6.72,-12.693200000000001,2.9292000000000002,-16.5988
6.73,-12.205,2.4410000000000003,-15.6224
6.74,-11.716800000000001,2.4410000000000003,-16.1106
6.75,-13.1814,3.4174,-16.5988
6.76,-12.693200000000001,2.4410000000000003,-16.1106
6.7700000000000005,-12.693200000000001,2.4410000000000003,-15.1342
6.78,-13.1814,2.9292000000000002,-15.6224
6.79,-12.205,1.9528,-16.1106
6.8,-12.693200000000001,3.4174,-16.1106
6.8100000000000005,-11.716800000000001,2.9292000000000002,-16.5988
6.82,-12.205,1.9528,-15.6224
6.83,-12.205,2.9292000000000002,-17.575200000000002
6.84,-12.693200000000001,1.9528,-16.5988
6.8500000000000005,-12.205,2.4410000000000003,-16.1106
6.86,-12.693200000000001,1.9528,-16.5988
6.87,-12.205,2.4410000000000003,-15.6224
6.88,-11.716800000000001,1.9528,-17.087
6.890000000000001,-11.716800000000001,2.9292000000000002,-16.1106
6.9,-12.205,2.9292000000000002,-16.1106
6.91,-11.716800000000001,1.9528,-15.1342
6.92,-11.2286,2.4410000000000003,-16.5988
6.93,-11.2286,2.9292000000000002,-16.1106
6.94,-11.716800000000001,2.4410000000000003,-16.5988
6.95,-12.205,2.4410000000000003,-16.5988
6.96,-11.716800000000001,2.9292000000000002,-16.5988
6.97,-11.716800000000001,3.4174,-16.5988
6.98,-10.2522,2.9292000000000002,-16.5988
6.99,-11.2286,3.4174,-16.1106
7.0,-11.2286,3.9056,-16.5988
7.01,-12.205,2.9292000000000002,-15.6224
7.0200000000000005,-12.205,3.9056,-15.1342
7.03,-11.2286,2.9292000000000002,-15.6224
7.04,-12.205,2.9292000000000002,-16.1106
7.05,-11.716800000000001,2.9292000000000002,-15.6224
7.0600000000000005,-12.205,2.9292000000000002,-15.6224
7.07,-11.716800000000001,3.9056,-16.1106
7.08,-11.716800000000001,2.9292000000000002,-15.6224
7.09,-12.205,3.9056,-15.1342
7.1000000000000005,-12.693200000000001,2.4410000000000003,-15.1342
7.11,-11.716800000000001,2.4410000000000003,-16.5988
7.12,-11.716800000000001,2.9292000000000002,-16.1106
7.13,-13.1814,2.4410000000000003,-15.6224
7.140000000000001,-12.205,1.9528,-15.1342
7.15,-12.693200000000001,2.4410000000000003,-15.1342
7.16,-12.205,3.4174,-15.6224
7.17,-12.205,1.4646000000000001,-15.6224
7.18,-12.205,1.4646000000000001,-14.646
7.19,-12.693200000000001,2.4410000000000003,-15.1342
7.2,-13.1814,2.4410000000000003,-15.1342
7.21,-12.205,1.4646000000000001,-16.1106
7.22,-12.205,1.9528,-15.6224
7.23,-12.205,1.4646000000000001,-15.6224
7.24,-12.693200000000001,1.9528,-15.6224
7.25,-12.205,1.4646000000000001,-15.6224
7.26,-12.205,1.4646000000000001,-16.1106
7.2700000000000005,-12.205,1.9528,-15.6224
7.28,-11.716800000000001,2.4410000000000003,-16.1106
7.29,-12.205,0.4882,-16.1106
7.3,-11.716800000000001,1.4646000000000001,-15.6224
7.3100000000000005,-10.740400000000001,1.4646000000000001,-16.1106
7.32,-11.2286,0.9764,-15.1342
7.33,-11.716800000000001,1.9528,-16.5988
7.34,-10.740400000000001,2.9292000000000002,-16.1106
7.3500000000000005,-10.740400000000001,2.4410000000000003,-16.1106
7.36,-10.740400000000001,1.9528,-15.6224
7.37,-11.2286,1.9528,-15.6224
7.38,-11.2286,2.4410000000000003,-16.5988
7.390000000000001,-10.740400000000001,3.9056,-17.087
7.4,-11.2286,2.9292000000000002,-15.1342
7.41,-10.740400000000001,1.9528,-15.6224
7.42,-11.716800000000001,2.9292000000000002,-15.1342
7.43,-11.2286,2.4410000000000003,-15.1342
7.44,-11.716800000000001,2.9292000000000002,-15.6224
7.45,-11.716800000000001,2.4410000000000003,-15.6224
7.46,-11.2286,3.4174,-15.6224
7.47,-12.205,2.4410000000000003,-15.6224
7.48,-12.205,3.9056,-15.6224
7.49,-12.205,1.9528,-15.6224
7.5,-12.693200000000001,3.4174,-14.646
7.51,-12.693200000000001,2.9292000000000002,-15.1342
7.5200000000000005,-12.205,1.9528,-14.646
7.53,-11.716800000000001,2.4410000000000003,-14.646
7.54,-11.716800000000001,2.9292000000000002,-15.1342
7.55,-11.716800000000001,2.9292000000000002,-14.646
7.5600000000000005,-12.205,2.9292000000000002,-14.646
7.57,-11.2286,1.9528,-15.1342
7.58,-12.205,1.9528,-15.1342
7.59,-12.693200000000001,1.9528,-15.6224
7.6000000000000005,-12.693200000000001,1.4646000000000001,-14.1578
7.61,-11.716800000000001,1.9528,-15.6224
7.62,-11.716800000000001,0.9764,-14.646
7.63,-12.693200000000001,1.4646000000000001,-16.5988
7.640000000000001,-12.693200000000001,1.4646000000000001,-15.1342
7.65,-11.716800000000001,1.4646000000000001,-16.1106
7.66,-11.716800000000001,2.4410000000000003,-15.1342
7.67,-13.1814,1.9528,-15.1342
7.68,-11.716800000000001,0.9764,-15.6224
7.69,-11.716800000000001,1.4646000000000001,-14.646
7.7,-11.716800000000001,1.4646000000000001,-15.6224
7.71,-11.2286,1.4646000000000001,-16.1106
7.72,-11.716800000000001,0.9764,-16.1106
7.73,-11.2286,1.9528,-15.6224
7.74,-11.716800000000001,2.9292000000000002,-15.1342
7.75,-11.2286,1.4646000000000001,-15.6224
7.76,-10.740400000000001,1.9528,-14.646
7.7700000000000005,-11.716800000000001,1.9528,-15.6224
7.78,-10.740400000000001,2.4410000000000003,-15.1342
7.79,-10.740400000000001,3.4174,-15.1342
7.8,-11.2286,1.9528,-15.6224
7.8100000000000005,-10.2522,4.393800000000001,-15.6224
7.82,-11.2286,2.9292000000000002,-14.646
7.83,-11.2286,2.9292000000000002,-15.1342
7.84,-10.740400000000001,2.9292000000000002,-15.1342
7.8500000000000005,-11.2286,3.4174,-14.646
7.86,-11.2286,2.4410000000000003,-14.646
7.87,-11.716800000000001,3.4174,-15.1342
7.88,-10.740400000000001,2.9292000000000002,-15.1342
7.890000000000001,-11.716800000000001,1.4646000000000001,-14.646
7.9,-11.716800000000001,2.9292000000000002,-14.1578
7.91,-12.693200000000001,1.9528,-14.646
7.92,-12.205,2.4410000000000003,-14.646
7.930000000000001,-11.716800000000001,2.9292000000000002,-14.646
7.94,-12.693200000000001,3.9056,-15.1342
7.95,-11.716800000000001,2.4410000000000003,-14.1578
7.96,-12.205,2.4410000000000003,-14.646
7.97,-11.716800000000001,2.9292000000000002,-15.1342
7.98,-12.205,2.4410000000000003,-14.1578
7.99,-12.205,2.4410000000000003,-14.1578
8.0,-12.205,0.9764,-15.1342
8.01,-12.693200000000001,2.4410000000000003,-15.1342
8.02,-12.205,2.4410000000000003,-14.646
8.03,-12.205,0.9764,-15.6224
8.040000000000001,-11.2286,0.9764,-14.646
8.05,-12.205,1.4646000000000001,-14.646
8.06,-11.2286,0.9764,-14.646
8.07,-12.693200000000001,1.4646000000000001,-15.1342
8.08,-12.205,1.4646000000000001,-15.6224
8.09,-12.205,1.4646000000000001,-14.1578
8.1,-11.2286,0.9764,-15.1342
8.11,-11.2286,1.4646000000000001,-15.6224
8.120000000000001,-11.716800000000001,0.9764,-15.1342
8.13,-11.2286,0.4882,-15.1342
8.14,-11.2286,0.4882,-15.1342
8.15,-11.716800000000001,1.4646000000000001,-15.6224
8.16,-11.716800000000001,1.4646000000000001,-15.1342
8.17,-10.740400000000001,1.9528,-15.6224
8.18,-11.716800000000001,1.4646000000000001,-15.6224
8.19,-10.740400000000001,1.4646000000000001,-15.1342
8.2,-11.716800000000001,2.4410000000000003,-15.1342
8.21,-10.2522,2.4410000000000003,-15.6224
8.22,-10.2522,2.4410000000000003,-15.6224
8.23,-10.2522,1.9528,-15.6224
8.24,-10.740400000000001,1.9528,-14.646
8.25,-11.2286,2.4410000000000003,-15.1342
8.26,-11.2286,1.9528,-15.1342
8.27,-10.740400000000001,1.9528,-14.1578
8.28,-10.740400000000001,2.9292000000000002,-15.1342
8.290000000000001,-10.740400000000001,2.4410000000000003,-14.646
8.3,-11.716800000000001,2.9292000000000002,-14.646
8.31,-11.2286,2.9292000000000002,-15.1342
8.32,-10.740400000000001,1.9528,-14.646
8.33,-12.205,1.9528,-14.646
8.34,-11.716800000000001,2.4410000000000003,-14.1578
8.35,-11.2286,2.9292000000000002,-14.646
8.36,-11.716800000000001,2.4410000000000003,-14.1578
8.370000000000001,-11.2286,1.9528,-14.646
8.38,-11.716800000000001,1.4646000000000001,-13.6696
8.39,-11.716800000000001,1.9528,-13.1814
8.4,-11.2286,1.4646000000000001,-13.6696
8.41,-12.205,2.4410000000000003,-14.1578
8.42,-12.205,2.9292000000000002,-13.6696
8.43,-11.2286,2.9292000000000002,-14.1578
8.44,-12.693200000000001,1.9528,-14.646
8.45,-11.716800000000001,1.4646000000000001,-15.1342
8.46,-12.205,0.9764,-14.1578
8.47,-12.205,0.9764,-14.646
8.48,-12.205,1.9528,-14.1578
8.49,-12.205,1.4646000000000001,-14.646
8.5,-12.205,0.9764,-14.646
8.51,-11.716800000000001,1.4646000000000001,-14.646
8.52,-11.2286,0.9764,-15.1342
8.53,-11.2286,1.4646000000000001,-15.1342
8.540000000000001,-10.740400000000001,1.4646000000000001,-15.1342
8.55,-10.2522,0.9764,-14.1578
8.56,-10.2522,1.4646000000000001,-15.1342
8.57,-11.2286,1.4646000000000001,-15.1342
8.58,-11.2286,0.9764,-15.1342
8.59,-10.740400000000001,1.9528,-15.1342
8.6,-10.740400000000001,1.4646000000000001,-14.646
8.61,-10.740400000000001,0.9764,-16.1106
8.620000000000001,-11.2286,2.4410000000000003,-14.646
8.63,-10.740400000000001,1.9528,-14.646
8.64,-10.2522,2.9292000000000002,-14.646
8.65,-10.2522,1.9528,-14.646
8.66,-10.2522,1.9528,-15.1342
8.67,-9.764000000000001,1.9528,-15.1342
8.68,-10.2522,2.4410000000000003,-14.1578
8.69,-9.764000000000001,2.4410000000000003,-15.1342
8.700000000000001,-10.2522,1.9528,-14.1578
8.71,-11.716800000000001,2.9292000000000002,-14.1578
8.72,-11.2286,2.9292000000000002,-14.646
8.73,-10.740400000000001,2.4410000000000003,-15.1342
8.74,-11.2286,2.4410000000000003,-14.646
8.75,-10.740400000000001,2.9292000000000002,-14.1578
8.76,-11.2286,1.9528,-14.646
8.77,-10.2522,2.9292000000000002,-13.6696
8.78,-11.2286,1.4646000000000001,-14.1578
8.790000000000001,-10.740400000000001,3.4174,-13.6696
8.8,-11.716800000000001,2.4410000000000003,-14.1578
8.81,-10.740400000000001,1.9528,-13.6696
8.82,-12.205,1.9528,-14.1578
8.83,-11.716800000000001,2.4410000000000003,-15.6224
8.84,-11.716800000000001,2.9292000000000002,-14.646
8.85,-12.693200000000001,1.4646000000000001,-14.1578
8.86,-11.716800000000001,1.9528,-13.6696
8.870000000000001,-11.2286,1.9528,-14.1578
8.88,-11.716800000000001,1.9528,-13.6696
8.89,-12.205,1.4646000000000001,-13.6696
8.9,-11.2286,0.9764,-13.6696
8.91,-11.716800000000001,1.9528,-14.646
8.92,-11.716800000000001,0.9764,-14.1578
8.93,-11.2286,0.9764,-14.1578
8.94,-11.716800000000001,0.9764,-14.646
8.950000000000001,-12.205,0.4882,-14.646
8.96,-11.716800000000001,0.4882,-14.646
8.97,-11.2286,0.4882,-15.1342
8.98,-10.740400000000001,0.0,-14.1578
8.99,-11.2286,0.4882,-14.646
9.0,-11.2286,1.4646000000000001,-14.646
9.01,-10.2522,0.4882,-14.646
9.02,-11.2286,1.9528,-15.1342
9.03,-10.2522,0.4882,-13.6696
9.040000000000001,-10.740400000000001,0.9764,-15.1342
9.05,-11.2286,1.9528,-14.1578
9.06,-10.740400000000001,2.4410000000000003,-15.6224
9.07,-10.2522,1.4646000000000001,-15.1342
9.08,-11.2286,2.9292000000000002,-13.6696
9.09,-10.740400000000001,1.9528,-14.646
9.1,-10.2522,1.4646000000000001,-14.1578
9.11,-10.2522,1.9528,-14.1578
9.120000000000001,-9.764000000000001,1.9528,-15.6224
9.13,-11.2286,1.4646000000000001,-14.646
9.14,-9.764000000000001,2.4410000000000003,-15.1342
9.15,-11.2286,2.4410000000000003,-14.1578
9.16,-10.740400000000001,1.9528,-14.1578
9.17,-9.764000000000001,1.9528,-15.6224
9.18,-10.740400000000001,2.4410000000000003,-14.646
9.19,-10.740400000000001,2.4410000000000003,-13.1814
9.200000000000001,-11.716800000000001,3.4174,-13.6696
9.21,-10.2522,1.9528,-13.6696
9.22,-11.2286,2.9292000000000002,-14.1578
9.23,-11.716800000000001,2.9292000000000002,-14.1578
9.24,-11.2286,2.4410000000000003,-13.6696
9.25,-10.740400000000001,1.9528,-14.1578
9.26,-10.740400000000001,1.9528,-14.1578
9.27,-11.2286,2.9292000000000002,-13.6696
9.28,-10.740400000000001,1.9528,-13.6696
9.290000000000001,-11.2286,1.9528,-13.6696
9.3,-12.205,1.9528,-13.6696
9.31,-12.205,0.9764,-13.6696
9.32,-12.693200000000001,1.9528,-13.6696
9.33,-11.716800000000001,1.9528,-14.646
9.34,-11.716800000000001,1.4646000000000001,-14.1578
9.35,-11.2286,1.4646000000000001,-13.6696
9.36,-11.716800000000001,0.9764,-14.1578
9.370000000000001,-11.716800000000001,0.4882,-14.646
9.38,-11.716800000000001,0.9764,-14.646
9.39,-11.716800000000001,0.4882,-14.1578
9.4,-11.716800000000001,0.9764,-14.646
9.41,-11.2286,0.4882,-14.1578
9.42,-11.2286,1.4646000000000001,-15.1342
9.43,-11.716800000000001,0.4882,-14.1578
9.44,-11.716800000000001,1.4646000000000001,-15.1342
9.450000000000001,-10.740400000000001,0.4882,-14.646
9.46,-10.740400000000001,1.4646000000000001,-14.1578
9.47,-10.740400000000001,0.9764,-14.646
9.48,-11.2286,0.9764,-14.646
9.49,-9.764000000000001,0.4882,-14.1578
9.5,-10.740400000000001,1.4646000000000001,-15.1342
9.51,-10.740400000000001,1.4646000000000001,-14.646
9.52,-9.764000000000001,1.4646000000000001,-15.1342
9.53,-10.740400000000001,0.9764,-14.1578
9.540000000000001,-10.2522,0.4882,-14.646
9.55,-9.764000000000001,0.9764,-14.646
9.56,-10.2522,1.4646000000000001,-15.6224
9.57,-10.740400000000001,1.4646000000000001,-14.646
9.58,-9.764000000000001,1.4646000000000001,-14.646
9.59,-10.2522,1.4646000000000001,-15.1342
9.6,-10.2522,1.9528,-15.1342
9.61,-9.764000000000001,1.9528,-14.1578
9.620000000000001,-10.2522,1.9528,-14.1578
9.63,-10.2522,2.9292000000000002,-13.1814
9.64,-10.2522,1.4646000000000001,-14.646
9.65,-10.740400000000001,2.4410000000000003,-14.1578
9.66,-10.2522,2.4410000000000003,-14.646
9.67,-9.764000000000001,1.4646000000000001,-13.1814
9.68,-10.2522,1.4646000000000001,-13.1814
9.69,-10.740400000000001,2.9292000000000002,-13.6696
9.700000000000001,-10.2522,2.9292000000000002,-13.6696
9.71,-10.740400000000001,2.4410000000000003,-13.6696
9.72,-10.2522,2.4410000000000003,-13.1814
9.73,-11.716800000000001,2.9292000000000002,-13.6696
9.74,-10.2522,1.4646000000000001,-13.6696
9.75,-10.740400000000001,1.9528,-13.1814
9.76,-11.2286,0.9764,-13.1814
9.77,-11.716800000000001,1.9528,-13.6696
9.78,-11.2286,1.9528,-14.1578
9.790000000000001,-11.2286,1.4646000000000001,-14.646
9.8,-11.2286,2.4410000000000003,-13.1814
9.81,-10.740400000000001,1.4646000000000001,-13.1814
9.82,-11.2286,2.4410000000000003,-13.1814
9.83,-11.716800000000001,0.4882,-13.6696
9.84,-11.2286,0.9764,-14.646
9.85,-11.716800000000001,1.9528,-13.6696
9.86,-11.716800000000001,0.4882,-13.1814
9.870000000000001,-11.716800000000001,0.4882,-14.1578
9.88,-11.2286,0.4882,-14.1578
9.89,-10.740400000000001,0.4882,-14.1578
9.9,-10.740400000000001,0.4882,-14.646
9.91,-11.716800000000001,0.9764,-13.6696
9.92,-11.2286,0.4882,-14.646
9.93,-10.2522,0.4882,-14.646
9.94,-11.2286,0.4882,-15.1342
9.950000000000001,-10.2522,0.4882,-14.1578
9.96,-11.2286,0.9764,-13.6696
9.97,-11.2286,0.4882,-15.1342
9.98,-10.740400000000001,0.0,-14.1578
9.99,-10.2522,0.9764,-13.6696
10.0,-9.764000000000001,1.4646000000000001,-14.646
10.01,-9.764000000000001,1.4646000000000001,-14.1578
10.02,-10.740400000000001,0.9764,-15.1342
10.03,-9.764000000000001,0.9764,-14.646
10.040000000000001,-9.2758,1.4646000000000001,-14.646
10.05,-9.764000000000001,2.4410000000000003,-14.1578
10.06,-9.2758,1.4646000000000001,-13.6696
10.07,-9.2758,1.9528,-15.1342
10.08,-9.764000000000001,1.4646000000000001,-14.1578
10.09,-10.2522,1.4646000000000001,-14.1578
10.1,-9.764000000000001,2.4410000000000003,-13.6696
10.11,-9.764000000000001,1.9528,-13.6696
10.120000000000001,-10.2522,1.9528,-13.1814
10.13,-10.2522,1.9528,-14.1578
10.14,-9.764000000000001,1.9528,-13.1814
10.15,-9.764000000000001,1.9528,-13.6696
10.16,-10.740400000000001,1.4646000000000001,-13.1814
10.17,-10.740400000000001,1.9528,-13.6696
10.18,-11.2286,1.9528,-12.693200000000001
10.19,-10.2522,1.9528,-14.1578
10.200000000000001,-10.2522,1.9528,-13.1814
10.21,-10.2522,2.9292000000000002,-13.1814
10.22,-10.740400000000001,2.9292000000000002,-12.693200000000001
10.23,-10.740400000000001,2.4410000000000003,-12.205
10.24,-10.740400000000001,1.9528,-13.6696
10.25,-10.740400000000001,0.9764,-13.1814
10.26,-12.205,1.9528,-13.1814
10.27,-11.2286,1.9528,-11.716800000000001
10.28,-12.205,1.9528,-13.1814
10.290000000000001,-11.716800000000001,1.4646000000000001,-13.6696
10.3,-11.2286,0.4882,-13.1814
10.31,-11.2286,0.9764,-14.1578
10.32,-11.716800000000001,0.9764,-13.1814
10.33,-10.740400000000001,0.0,-12.693200000000001
10.34,-11.2286,0.4882,-13.6696
10.35,-12.693200000000001,0.9764,-13.6696
10.36,-11.2286,0.0,-13.6696
10.370000000000001,-11.2286,0.4882,-13.6696
10.38,-10.740400000000001,0.4882,-13.6696
10.39,-11.2286,0.9764,-14.1578
10.4,-11.2286,0.0,-14.1578
10.41,-11.2286,0.4882,-14.646
10.42,-10.740400000000001,1.4646000000000001,-14.1578
10.43,-11.2286,0.4882,-13.6696
10.44,-10.740400000000001,0.0,-13.1814
10.450000000000001,-10.2522,0.9764,-15.1342
10.46,-11.2286,0.0,-13.6696
10.47,-9.764000000000001,-0.4882,-14.1578
10.48,-11.2286,0.9764,-15.1342
10.49,-9.2758,0.4882,-14.1578
10.5,-10.740400000000001,0.9764,-15.1342
10.51,-9.764000000000001,0.4882,-15.6224
10.52,-9.764000000000001,0.4882,-14.1578
10.53,-10.2522,1.4646000000000001,-14.646
10.540000000000001,-10.2522,0.4882,-14.1578
10.55,-9.2758,1.4646000000000001,-14.646
10.56,-9.764000000000001,1.4646000000000001,-14.646
10.57,-10.740400000000001,0.9764,-14.1578
10.58,-9.2758,1.9528,-13.6696
10.59,-10.2522,0.9764,-13.1814
10.6,-9.764000000000001,2.4410000000000003,-14.646
10.61,-9.764000000000001,1.4646000000000001,-13.6696
10.620000000000001,-9.764000000000001,1.9528,-12.693200000000001
10.63,-10.2522,1.4646000000000001,-14.1578
10.64,-9.2758,1.9528,-13.1814
10.65,-10.2522,1.4646000000000001,-12.693200000000001
10.66,-9.764000000000001,1.9528,-13.1814
10.67,-9.764000000000001,1.9528,-12.693200000000001
10.68,-10.740400000000001,2.9292000000000002,-11.716800000000001
10.69,-10.2522,1.9528,-13.1814
10.700000000000001,-10.2522,1.9528,-12.693200000000001
10.71,-10.740400000000001,1.4646000000000001,-13.6696
10.72,-10.740400000000001,1.9528,-13.1814
10.73,-11.716800000000001,1.4646000000000001,-12.693200000000001
10.74,-11.2286,1.9528,-14.1578
10.75,-11.2286,1.9528,-13.6696
10.76,-11.716800000000001,1.9528,-12.693200000000001
10.77,-11.2286,1.4646000000000001,-13.1814
10.78,-10.740400000000001,0.9764,-12.693200000000001
10.790000000000001,-11.2286,1.4646000000000001,-12.693200000000001
10.8,-11.716800000000001,1.4646000000000001,-13.1814
10.81,-11.716800000000001,0.9764,-12.693200000000001
10.82,-11.716800000000001,1.4646000000000001,-12.693200000000001
10.83,-12.205,0.0,-13.6696
10.84,-10.740400000000001,0.4882,-13.6696
10.85,-11.716800000000001,0.4882,-12.693200000000001
10.86,-11.716800000000001,0.4882,-13.6696
10.870000000000001,-10.740400000000001,0.0,-13.1814
10.88,-10.2522,0.4882,-14.1578
10.89,-11.716800000000001,0.0,-13.6696
10.9,-10.2522,0.0,-13.1814
10.91,-10.2522,0.4882,-13.1814
10.92,-9.764000000000001,0.0,-13.6696
10.93,-11.2286,0.9764,-14.1578
10.94,-10.740400000000001,0.9764,-14.1578
10.950000000000001,-10.740400000000001,0.0,-14.1578
10.96,-10.740400000000001,0.9764,-12.693200000000001
10.97,-10.2522,-0.4882,-14.646
10.98,-10.740400000000001,-0.9764,-13.1814
10.99,-10.740400000000001,0.4882,-14.1578
11.0,-10.2522,0.4882,-13.1814
11.01,-10.2522,0.9764,-14.1578
11.02,-9.764000000000001,0.4882,-14.646
11.03,-9.764000000000001,0.0,-14.1578
11.040000000000001,-10.740400000000001,0.9764,-14.646
11.05,-9.2758,0.4882,-13.6696
11.06,-10.2522,0.9764,-14.1578
11.07,-9.2758,0.4882,-14.646
11.08,-9.2758,0.9764,-13.6696
11.09,-9.2758,1.4646000000000001,-14.1578
11.1,-8.2994,1.4646000000000001,-13.6696
11.11,-9.764000000000001,1.9528,-13.6696
11.120000000000001,-9.764000000000001,1.9528,-13.6696
11.13,-10.2522,1.9528,-13.6696
11.14,-9.2758,0.9764,-14.1578
11.15,-10.2522,1.4646000000000001,-13.6696
11.16,-9.764000000000001,2.4410000000000003,-13.1814
11.17,-9.2758,1.4646000000000001,-13.1814
11.18,-9.2758,0.9764,-12.205
11.19,-9.764000000000001,1.9528,-12.205
11.200000000000001,-8.787600000000001,2.4410000000000003,-12.205
11.21,-10.2522,1.4646000000000001,-12.205
11.22,-10.740400000000001,2.9292000000000002,-12.693200000000001
11.23,-10.2522,1.9528,-12.693200000000001
11.24,-10.740400000000001,1.4646000000000001,-12.693200000000001
11.25,-11.2286,2.4410000000000003,-12.205
11.26,-9.2758,1.9528,-13.1814
11.27,-10.740400000000001,1.4646000000000001,-12.205
11.28,-10.740400000000001,1.9528,-12.693200000000001
11.290000000000001,-11.2286,1.4646000000000001,-12.205
11.3,-11.716800000000001,1.4646000000000001,-11.2286
11.31,-10.740400000000001,1.4646000000000001,-11.716800000000001
11.32,-10.2522,0.9764,-11.716800000000001
11.33,-10.740400000000001,0.9764,-12.693200000000001
11.34,-11.716800000000001,0.9764,-12.693200000000001
11.35,-11.716800000000001,1.9528,-12.693200000000001
11.36,-11.716800000000001,0.9764,-12.205
11.370000000000001,-10.740400000000001,1.4646000000000001,-12.693200000000001
11.38,-10.740400000000001,0.9764,-12.693200000000001
11.39,-11.716800000000001,0.4882,-13.6696
11.4,-11.2286,0.4882,-13.6696
11.41,-12.205,0.4882,-14.1578
11.42,-11.2286,0.4882,-13.1814
11.43,-10.740400000000001,0.4882,-13.6696
11.44,-10.2522,0.4882,-14.1578
11.450000000000001,-10.740400000000001,0.4882,-13.6696
11.46,-10.740400000000001,0.4882,-13.6696
11.47,-9.764000000000001,0.9764,-13.1814
11.48,-11.2286,0.0,-14.646
11.49,-10.2522,0.0,-13.6696
11.5,-9.764000000000001,0.0,-13.6696
11.51,-9.764000000000001,0.4882,-14.1578
11.52,-10.2522,-0.4882,-14.646
11.53,-10.740400000000001,0.0,-13.1814
11.540000000000001,-8.787600000000001,0.0,-13.6696
11.55,-9.764000000000001,0.0,-13.1814
11.56,-10.2522,0.9764,-13.1814
11.57,-9.2758,0.4882,-13.6696
11.58,-10.740400000000001,0.9764,-15.1342
11.59,-9.764000000000001,0.4882,-13.6696
11.6,-9.2758,0.4882,-13.6696
11.61,-9.2758,0.4882,-13.6696
11.620000000000001,-9.2758,1.4646000000000001,-13.6696
11.63,-9.764000000000001,1.4646000000000001,-13.6696
11.64,-9.2758,0.9764,-13.6696
11.65,-9.764000000000001,1.9528,-14.1578
11.66,-9.764000000000001,1.4646000000000001,-13.1814
11.67,-8.2994,1.9528,-13.1814
11.68,-9.2758,1.9528,-13.6696
11.69,-9.2758,1.4646000000000001,-13.1814
11.700000000000001,-9.764000000000001,1.4646000000000001,-12.693200000000001
11.71,-8.787600000000001,2.4410000000000003,-13.1814
11.72,-9.764000000000001,0.9764,-12.693200000000001
11.73,-8.787600000000001,2.4410000000000003,-13.1814
11.74,-9.2758,1.9528,-12.205
11.75,-9.764000000000001,1.9528,-13.1814
11.76,-9.764000000000001,2.9292000000000002,-13.6696
11.77,-9.764000000000001,1.4646000000000001,-12.205
11.78,-10.2522,1.9528,-12.693200000000001
11.790000000000001,-10.2522,1.4646000000000001,-12.693200000000001
11.8,-11.2286,1.4646000000000001,-12.205
11.81,-10.740400000000001,1.9528,-12.693200000000001
11.82,-10.2522,0.9764,-12.205
11.83,-11.2286,1.4646000000000001,-13.1814
11.84,-10.2522,1.4646000000000001,-12.693200000000001
11.85,-11.2286,0.9764,-13.1814
11.86,-10.740400000000001,0.9764,-13.6696
11.870000000000001,-11.716800000000001,1.4646000000000001,-12.205
11.88,-11.2286,0.9764,-12.205
11.89,-11.2286,0.9764,-13.1814
11.9,-10.2522,0.4882,-12.693200000000001
11.91,-11.2286,0.4882,-11.716800000000001
11.92,-11.2286,0.9764,-12.693200000000001
11.93,-10.740400000000001,0.4882,-12.205
11.94,-11.716800000000001,-0.9764,-12.205
11.950000000000001,-11.2286,0.4882,-12.693200000000001
11.96,-11.2286,0.0,-13.6696
11.97,-10.740400000000001,0.4882,-13.1814
11.98,-10.2522,0.9764,-13.6696
11.99,-11.2286,0.0,-12.693200000000001
12.0,-11.716800000000001,0.0,-12.693200000000001
12.01,-11.2286,-0.4882,-13.6696
12.02,-10.740400000000001,0.0,-12.693200000000001
12.030000000000001,-11.2286,-0.4882,-12.693200000000001
12.040000000000001,-10.740400000000001,0.0,-13.6696
12.05,-10.2522,-0.4882,-13.1814
12.06,-9.764000000000001,0.0,-12.693200000000001
12.07,-9.764000000000001,0.0,-14.646
12.08,-9.2758,0.0,-13.6696
12.09,-9.764000000000001,0.0,-13.1814
12.1,-8.2994,0.0,-13.6696
12.11,-8.787600000000001,-0.9764,-13.6696
12.120000000000001,-9.2758,0.9764,-14.1578
12.13,-9.764000000000001,0.4882,-13.1814
12.14,-9.764000000000001,0.0,-14.646
12.15,-8.787600000000001,0.4882,-13.6696
12.16,-8.787600000000001,-0.4882,-13.6696
12.17,-8.787600000000001,0.4882,-13.6696
12.18,-9.2758,0.9764,-13.6696
12.19,-8.787600000000001,0.4882,-13.6696
12.200000000000001,-8.2994,0.0,-14.1578
12.21,-9.2758,0.9764,-12.693200000000001
12.22,-8.2994,0.9764,-13.6696
12.23,-8.787600000000001,1.4646000000000001,-13.6696
12.24,-8.2994,1.4646000000000001,-13.1814
12.25,-9.2758,1.4646000000000001,-13.1814
12.26,-9.2758,1.9528,-12.693200000000001
12.27,-9.764000000000001,1.4646000000000001,-12.693200000000001
12.280000000000001,-8.787600000000001,1.4646000000000001,-13.1814
12.290000000000001,-10.740400000000001,1.9528,-12.693200000000001
12.3,-9.2758,1.9528,-12.693200000000001
12.31,-10.2522,1.4646000000000001,-13.1814
12.32,-8.787600000000001,1.9528,-12.205
12.33,-10.2522,1.9528,-13.6696
12.34,-10.2522,1.4646000000000001,-12.205
12.35,-10.2522,1.4646000000000001,-12.205
12.36,-9.764000000000001,1.4646000000000001,-11.716800000000001
12.370000000000001,-11.2286,2.9292000000000002,-11.716800000000001
12.38,-10.2522,1.9528,-12.205
12.39,-9.764000000000001,2.4410000000000003,-11.716800000000001
12.4,-11.2286,1.4646000000000001,-12.205
12.41,-10.2522,1.9528,-12.205
12.42,-10.740400000000001,1.9528,-12.205
12.43,-10.2522,1.4646000000000001,-12.205
12.44,-11.2286,0.4882,-12.205
12.450000000000001,-10.740400000000001,0.9764,-13.1814
12.46,-11.2286,0.9764,-12.693200000000001
12.47,-10.740400000000001,0.4882,-12.205
12.48,-11.2286,1.4646000000000001,-11.716800000000001
12.49,-11.716800000000001,0.4882,-12.205
12.5,-10.2522,0.4882,-12.205
12.51,-10.740400000000001,-0.4882,-12.205
12.52,-10.2522,0.4882,-11.716800000000001
12.530000000000001,-11.2286,0.4882,-12.693200000000001
12.540000000000001,-11.2286,0.9764,-12.693200000000001
12.55,-10.740400000000001,0.4882,-13.1814
12.56,-11.2286,0.0,-13.6696
12.57,-11.2286,0.4882,-13.1814
12.58,-10.740400000000001,-0.9764,-13.1814
12.59,-10.2522,0.0,-12.693200000000001
12.6,-10.740400000000001,0.0,-12.693200000000001
12.61,-10.740400000000001,-0.4882,-12.205
12.620000000000001,-10.740400000000001,-0.4882,-12.693200000000001
12.63,-10.2522,0.0,-14.1578
12.64,-10.2522,-0.4882,-13.1814
12.65,-9.764000000000001,-0.4882,-13.1814
12.66,-10.2522,-0.4882,-13.1814
12.67,-9.2758,-0.4882,-13.1814
12.68,-10.740400000000001,-0.4882,-12.693200000000001
12.69,-9.764000000000001,-0.4882,-12.693200000000001
12.700000000000001,-8.2994,-0.4882,-13.6696
12.71,-9.2758,0.4882,-13.6696
12.72,-8.787600000000001,-0.4882,-14.1578
12.73,-9.2758,-0.4882,-12.693200000000001
12.74,-10.740400000000001,-0.4882,-13.1814
12.75,-8.787600000000001,0.0,-14.1578
12.76,-8.787600000000001,0.4882,-13.1814
12.77,-9.764000000000001,0.4882,-14.1578
12.780000000000001,-9.2758,0.9764,-13.1814
12.790000000000001,-9.2758,0.0,-13.1814
12.8,-8.787600000000001,1.4646000000000001,-13.6696
12.81,-8.2994,0.9764,-13.1814
12.82,-9.764000000000001,0.4882,-13.1814
12.83,-9.2758,1.4646000000000001,-13.1814
12.84,-9.2758,0.9764,-13.1814
12.85,-8.787600000000001,1.9528,-13.6696
12.86,-8.787600000000001,1.9528,-12.693200000000001
12.870000000000001,-9.764000000000001,1.4646000000000001,-13.1814
12.88,-9.764000000000001,1.4646000000000001,-12.205
12.89,-8.787600000000001,1.9528,-11.716800000000001
12.9,-9.2758,1.9528,-13.1814
12.91,-9.764000000000001,1.4646000000000001,-12.693200000000001
12.92,-10.2522,1.9528,-12.205
12.93,-10.2522,1.9528,-12.693200000000001
12.94,-10.2522,1.9528,-12.693200000000001
12.950000000000001,-9.764000000000001,0.9764,-11.716800000000001
12.96,-9.764000000000001,1.4646000000000001,-12.205
12.97,-9.764000000000001,2.4410000000000003,-12.693200000000001
12.98,-9.2758,2.4410000000000003,-12.693200000000001
12.99,-10.740400000000001,1.4646000000000001,-13.6696
13.0,-9.764000000000001,1.9528,-11.716800000000001
13.01,-10.2522,1.4646000000000001,-11.2286
13.02,-9.764000000000001,0.4882,-12.693200000000001
13.030000000000001,-10.2522,1.4646000000000001,-11.2286
13.040000000000001,-9.764000000000001,0.9764,-13.1814
13.05,-10.740400000000001,1.4646000000000001,-10.740400000000001
13.06,-10.740400000000001,0.9764,-11.716800000000001
13.07,-10.2522,1.4646000000000001,-11.716800000000001
13.08,-10.740400000000001,1.9528,-12.693200000000001
13.09,-10.2522,0.4882,-12.205
13.1,-10.740400000000001,0.4882,-12.205
13.11,-11.716800000000001,0.4882,-12.205
13.120000000000001,-10.740400000000001,0.4882,-11.716800000000001
13.13,-11.716800000000001,0.4882,-11.716800000000001
13.14,-11.2286,0.0,-12.693200000000001
13.15,-10.2522,0.0,-13.1814
13.16,-11.716800000000001,0.0,-12.205
13.17,-10.740400000000001,-0.4882,-12.693200000000001
13.18,-10.2522,0.0,-12.205
13.19,-11.2286,-0.4882,-12.693200000000001
13.200000000000001,-10.2522,0.4882,-13.1814
13.21,-11.2286,-0.4882,-13.1814
13.22,-10.2522,-0.9764,-12.693200000000001
13.23,-10.740400000000001,-0.4882,-13.6696
13.24,-10.2522,0.0,-13.6696
13.25,-10.2522,-0.9764,-13.1814
13.26,-10.740400000000001,0.4882,-13.6696
13.27,-9.764000000000001,-0.4882,-13.1814
13.280000000000001,-10.2522,-0.4882,-11.2286
13.290000000000001,-9.764000000000001,-1.4646000000000001,-13.1814
13.3,-9.2758,0.4882,-12.693200000000001
13.31,-9.2758,0.0,-13.1814
13.32,-9.764000000000001,-0.9764,-12.693200000000001
13.33,-8.787600000000001,0.0,-13.6696
13.34,-10.740400000000001,0.4882,-14.1578
13.35,-9.764000000000001,-0.4882,-13.1814
13.36,-9.2758,0.0,-13.6696
13.370000000000001,-9.2758,0.0,-14.1578
13.38,-9.2758,-0.4882,-13.1814
13.39,-9.2758,0.0,-13.6696
13.4,-9.2758,1.4646000000000001,-13.6696
13.41,-9.2758,1.4646000000000001,-13.6696
13.42,-7.8112,0.9764,-12.693200000000001
13.43,-9.764000000000001,0.9764,-13.1814
13.44,-9.2758,0.9764,-12.205
13.450000000000001,-8.2994,0.9764,-13.6696
13.46,-8.2994,0.9764,-12.205
13.47,-8.787600000000001,1.4646000000000001,-12.693200000000001
13.48,-8.787600000000001,1.4646000000000001,-12.205
13.49,-7.323,1.4646000000000001,-13.1814
13.5,-8.2994,1.9528,-12.693200000000001
13.51,-9.2758,1.9528,-13.1814
13.52,-8.787600000000001,0.9764,-12.205
13.530000000000001,-9.2758,1.9528,-12.205
13.540000000000001,-8.787600000000001,2.4410000000000003,-12.205
13.55,-8.787600000000001,0.9764,-12.693200000000001
13.56,-8.787600000000001,1.4646000000000001,-12.205
13.57,-9.2758,0.9764,-11.716800000000001
13.58,-9.764000000000001,0.9764,-12.693200000000001
13.59,-10.2522,2.4410000000000003,-12.205
13.6,-9.2758,1.4646000000000001,-11.716800000000001
13.61,-9.2758,1.4646000000000001,-11.2286
13.620000000000001,-9.764000000000001,0.4882,-11.716800000000001
13.63,-9.764000000000001,1.9528,-11.716800000000001
13.64,-9.764000000000001,0.4882,-12.205
13.65,-10.2522,1.4646000000000001,-11.716800000000001
13.66,-10.2522,1.4646000000000001,-12.693200000000001
13.67,-10.740400000000001,0.9764,-11.716800000000001
13.68,-10.2522,0.4882,-11.716800000000001
13.69,-10.2522,0.9764,-11.716800000000001
13.700000000000001,-10.2522,0.9764,-11.2286
13.71,-10.740400000000001,0.4882,-12.205
13.72,-10.2522,0.0,-11.716800000000001
13.73,-10.740400000000001,0.9764,-12.205
13.74,-10.2522,0.9764,-11.716800000000001
13.75,-10.740400000000001,0.9764,-12.205
13.76,-11.2286,0.4882,-11.716800000000001
13.77,-10.2522,0.4882,-12.693200000000001
13.780000000000001,-10.2522,-0.4882,-12.693200000000001
13.790000000000001,-10.740400000000001,0.4882,-11.2286
13.8,-11.2286,0.4882,-12.205
13.81,-11.2286,0.0,-12.205
13.82,-10.2522,-0.9764,-11.716800000000001
13.83,-10.740400000000001,-0.4882,-11.716800000000001
13.84,-9.764000000000001,0.0,-12.205
13.85,-10.2522,-0.9764,-12.205
13.86,-10.740400000000001,-1.4646000000000001,-12.693200000000001
13.870000000000001,-10.2522,-0.4882,-12.205
13.88,-9.764000000000001,-0.4882,-12.693200000000001
13.89,-10.2522,-0.4882,-13.1814
13.9,-9.764000000000001,-0.9764,-13.1814
13.91,-10.2522,-1.4646000000000001,-13.6696
13.92,-10.2522,0.0,-12.205
13.93,-9.2758,-0.4882,-13.1814
13.94,-9.2758,-0.4882,-13.1814
13.950000000000001,-9.2758,-0.9764,-12.693200000000001
13.96,-9.764000000000001,-0.4882,-13.1814
13.97,-8.2994,-0.4882,-13.1814
13.98,-9.2758,0.4882,-13.6696
13.99,-9.2758,-0.4882,-13.1814
14.0,-9.764000000000001,-0.4882,-13.1814
14.01,-8.787600000000001,0.0,-13.6696
14.02,-8.2994,-0.4882,-12.693200000000001
14.030000000000001,-8.787600000000001,-0.4882,-13.1814
14.040000000000001,-8.2994,-0.4882,-13.1814
14.05,-9.764000000000001,0.4882,-13.1814
14.06,-9.2758,0.0,-13.6696
14.07,-8.787600000000001,-0.9764,-12.693200000000001
14.08,-7.8112,0.0,-13.6696
14.09,-7.8112,0.0,-13.6696
14.1,-9.2758,1.4646000000000001,-13.1814
14.11,-8.787600000000001,0.9764,-14.1578
14.120000000000001,-9.764000000000001,0.9764,-13.6696
14.13,-8.2994,0.4882,-12.693200000000001
14.14,-8.787600000000001,0.9764,-11.716800000000001
14.15,-8.787600000000001,0.9764,-12.205
14.16,-8.787600000000001,2.4410000000000003,-12.693200000000001
14.17,-8.787600000000001,0.4882,-12.205
14.18,-8.787600000000001,1.4646000000000001,-12.205
14.19,-8.787600000000001,1.4646000000000001,-12.205
14.200000000000001,-8.787600000000001,2.4410000000000003,-13.1814
14.21,-9.2758,0.4882,-12.205
14.22,-8.787600000000001,2.4410000000000003,-11.716800000000001
14.23,-10.2522,0.4882,-11.2286
14.24,-9.764000000000001,2.4410000000000003,-12.205
14.25,-9.764000000000001,0.9764,-12.205
14.26,-9.764000000000001,1.4646000000000001,-12.205
14.27,-9.2758,1.4646000000000001,-11.716800000000001
14.280000000000001,-10.2522,1.9528,-11.716800000000001
14.290000000000001,-9.764000000000001,1.9528,-11.716800000000001
14.3,-9.2758,1.9528,-12.693200000000001
14.31,-9.2758,1.4646000000000001,-11.2286
14.32,-10.2522,1.4646000000000001,-11.716800000000001
14.33,-9.2758,1.4646000000000001,-11.2286
14.34,-10.740400000000001,0.9764,-12.205
14.35,-10.740400000000001,0.4882,-11.2286
14.36,-10.2522,0.9764,-11.2286
14.370000000000001,-9.764000000000001,0.0,-11.2286
14.38,-9.764000000000001,1.4646000000000001,-11.2286
14.39,-10.2522,0.0,-11.716800000000001
14.4,-10.740400000000001,0.0,-11.2286
14.41,-10.2522,0.9764,-10.740400000000001
14.42,-10.740400000000001,0.4882,-11.716800000000001
14.43,-11.716800000000001,0.9764,-11.2286
14.44,-10.740400000000001,-0.4882,-11.2286
14.450000000000001,-10.2522,0.0,-11.716800000000001
14.46,-10.740400000000001,0.0,-11.2286
14.47,-9.764000000000001,0.0,-11.716800000000001
14.48,-10.2522,0.0,-12.205
14.49,-9.764000000000001,-0.4882,-12.205
14.5,-9.764000000000001,-0.4882,-11.716800000000001
14.51,-11.2286,-0.4882,-12.205
14.52,-11.716800000000001,0.4882,-12.205
14.530000000000001,-9.764000000000001,-0.4882,-11.716800000000001
14.540000000000001,-10.740400000000001,-0.9764,-11.716800000000001
14.55,-10.2522,-0.4882,-12.205
14.56,-9.2758,-0.4882,-12.693200000000001
14.57,-9.764000000000001,-0.4882,-12.205
14.58,-10.740400000000001,-0.4882,-11.716800000000001
14.59,-9.2758,-0.9764,-13.1814
14.6,-9.764000000000001,-1.9528,-13.1814
14.61,-9.764000000000001,-0.9764,-13.1814
14.620000000000001,-9.764000000000001,-0.9764,-13.1814
14.63,-8.787600000000001,-0.4882,-12.693200000000001
14.64,-9.2758,-0.4882,-13.6696
14.65,-9.2758,0.0,-13.1814
14.66,-9.2758,-0.4882,-13.6696
14.67,-8.787600000000001,-0.4882,-13.6696
14.68,-8.787600000000001,0.0,-13.1814
14.69,-8.787600000000001,0.0,-12.693200000000001
14.700000000000001,-8.787600000000001,-0.9764,-13.1814
14.71,-8.2994,-0.4882,-12.693200000000001
14.72,-8.2994,-0.4882,-13.6696
14.73,-9.2758,0.9764,-13.1814
14.74,-8.2994,0.0,-12.693200000000001
14.75,-8.787600000000001,-0.9764,-13.6696
14.76,-8.2994,0.4882,-12.693200000000001
14.77,-8.787600000000001,-0.4882,-13.1814
14.780000000000001,-8.787600000000001,0.4882,-12.693200000000001
14.790000000000001,-8.2994,0.9764,-12.693200000000001
14.8,-8.2994,0.4882,-13.1814
14.81,-8.2994,1.4646000000000001,-13.6696
14.82,-8.787600000000001,0.9764,-13.1814
14.83,-8.2994,0.9764,-13.1814
14.84,-8.787600000000001,0.4882,-12.693200000000001
14.85,-7.8112,0.9764,-12.693200000000001
14.86,-8.787600000000001,1.4646000000000001,-12.205
14.870000000000001,-8.2994,1.4646000000000001,-12.205
14.88,-7.323,1.9528,-12.205
14.89,-8.2994,0.9764,-12.205
14.9,-8.2994,1.4646000000000001,-12.205
14.91,-9.2758,1.4646000000000001,-11.2286
14.92,-8.2994,1.4646000000000001,-12.205
14.93,-8.787600000000001,0.9764,-11.716800000000001
14.94,-8.2994,1.9528,-10.740400000000001
14.950000000000001,-8.787600000000001,1.9528,-12.205
14.96,-8.2994,0.9764,-13.1814
14.97,-9.764000000000001,0.9764,-11.2286
14.98,-9.2758,1.4646000000000001,-12.205
14.99,-9.2758,1.4646000000000001,-11.2286
15.0,-8.787600000000001,2.4410000000000003,-11.2286
15.01,-9.2758,1.9528,-11.2286
15.02,-9.764000000000001,1.4646000000000001,-10.740400000000001
15.030000000000001,-9.2758,1.4646000000000001,-11.716800000000001
15.040000000000001,-9.764000000000001,1.9528,-11.2286
15.05,-10.740400000000001,0.4882,-12.205
15.06,-9.764000000000001,0.9764,-11.2286
15.07,-10.2522,0.4882,-11.2286
15.08,-10.740400000000001,0.9764,-10.740400000000001
15.09,-10.740400000000001,0.4882,-10.2522
15.1,-10.740400000000001,1.4646000000000001,-11.2286
15.11,-10.2522,1.4646000000000001,-11.716800000000001
15.120000000000001,-11.2286,0.4882,-11.2286
15.13,-10.740400000000001,0.9764,-10.740400000000001
15.14,-10.740400000000001,-0.4882,-11.716800000000001
15.15,-10.740400000000001,0.4882,-10.740400000000001
15.16,-10.740400000000001,0.4882,-11.2286
15.17,-10.740400000000001,0.4882,-12.205
15.18,-10.740400000000001,-0.4882,-11.2286
15.19,-10.740400000000001,0.9764,-11.716800000000001
15.200000000000001,-11.2286,0.0,-11.2286
15.21,-10.740400000000001,0.0,-11.716800000000001
15.22,-9.764000000000001,-0.4882,-11.716800000000001
15.23,-10.2522,-0.4882,-11.2286
15.24,-10.2522,-0.4882,-12.205
15.25,-10.740400000000001,-0.4882,-12.205
15.26,-9.764000000000001,-0.9764,-12.205
15.27,-10.740400000000001,-0.4882,-12.693200000000001
15.280000000000001,-10.2522,-0.4882,-11.716800000000001
15.290000000000001,-10.2522,-0.4882,-11.716800000000001
15.3,-11.2286,-0.4882,-13.1814
15.31,-10.2522,-0.9764,-12.205
15.32,-10.2522,0.0,-13.1814
15.33,-9.764000000000001,-0.9764,-12.205
15.34,-9.764000000000001,-0.4882,-12.205
15.35,-9.764000000000001,-0.9764,-12.205
15.36,-9.764000000000001,-1.4646000000000001,-13.1814
15.370000000000001,-9.2758,-0.4882,-13.6696
15.38,-8.787600000000001,-0.4882,-12.693200000000001
15.39,-9.764000000000001,-1.4646000000000001,-12.693200000000001
15.4,-9.2758,-0.9764,-13.1814
15.41,-8.2994,-0.9764,-13.6696
15.42,-8.2994,-0.4882,-13.1814
15.43,-8.787600000000001,-0.9764,-12.205
15.44,-8.2994,0.4882,-13.1814
15.450000000000001,-8.787600000000001,-0.9764,-13.1814
15.46,-8.2994,0.0,-13.1814
15.47,-8.787600000000001,0.4882,-12.693200000000001
15.48,-7.8112,0.0,-12.693200000000001
15.49,-8.787600000000001,-0.4882,-12.693200000000001
15.5,-8.787600000000001,0.0,-12.205
15.51,-8.2994,0.4882,-12.205
15.52,-7.8112,0.0,-12.693200000000001
15.530000000000001,-7.8112,-0.4882,-12.693200000000001
15.540000000000001,-8.2994,0.4882,-12.205
15.55,-7.323,0.4882,-11.716800000000001
15.56,-8.787600000000001,0.4882,-13.1814
15.57,-7.8112,0.4882,-12.205
15.58,-7.8112,0.9764,-12.693200000000001
15.59,-8.2994,0.4882,-11.716800000000001
15.6,-8.2994,0.9764,-12.693200000000001
15.610000000000001,-8.2994,0.4882,-12.205
15.620000000000001,-8.2994,1.4646000000000001,-12.205
15.63,-9.2758,1.9528,-11.716800000000001
15.64,-7.8112,1.4646000000000001,-12.205
15.65,-8.787600000000001,0.9764,-11.716800000000001
15.66,-8.2994,0.9764,-11.716800000000001
15.67,-8.787600000000001,0.9764,-12.205
15.68,-7.8112,1.4646000000000001,-11.716800000000001
15.69,-8.787600000000001,1.4646000000000001,-12.205
15.700000000000001,-9.2758,1.9528,-12.693200000000001
15.71,-9.2758,2.4410000000000003,-11.716800000000001
15.72,-9.764000000000001,1.4646000000000001,-12.205
15.73,-7.8112,1.4646000000000001,-11.716800000000001
15.74,-9.2758,0.9764,-12.205
15.75,-9.764000000000001,1.9528,-11.716800000000001
15.76,-10.2522,0.4882,-12.205
15.77,-9.2758,1.9528,-10.740400000000001
15.780000000000001,-9.764000000000001,1.9528,-11.716800000000001
15.790000000000001,-9.2758,1.4646000000000001,-10.2522
15.8,-9.2758,1.4646000000000001,-10.740400000000001
15.81,-9.764000000000001,0.9764,-10.740400000000001
15.82,-9.2758,1.4646000000000001,-11.2286
15.83,-10.740400000000001,1.4646000000000001,-11.716800000000001
15.84,-10.2522,0.4882,-11.2286
15.85,-10.2522,0.4882,-11.2286
15.860000000000001,-9.764000000000001,0.9764,-10.2522
15.870000000000001,-10.2522,0.4882,-11.2286
15.88,-10.740400000000001,0.0,-11.2286
15.89,-10.740400000000001,0.0,-11.2286
15.9,-10.2522,0.9764,-11.716800000000001
15.91,-10.740400000000001,0.4882,-11.716800000000001
15.92,-9.764000000000001,0.4882,-12.205
15.93,-10.2522,0.4882,-11.2286
15.94,-10.740400000000001,0.9764,-10.740400000000001
15.950000000000001,-11.2286,0.0,-10.740400000000001
15.96,-10.740400000000001,0.0,-10.740400000000001
15.97,-10.740400000000001,-0.4882,-10.740400000000001
15.98,-10.740400000000001,0.0,-12.693200000000001
15.99,-10.2522,0.4882,-11.2286
16.0,-10.2522,-0.9764,-11.2286
16.01,-9.764000000000001,0.4882,-11.2286
16.02,-11.2286,-0.9764,-11.2286
16.03,-11.2286,-0.9764,-12.205
16.04,-10.2522,-1.4646000000000001,-11.2286
16.05,-9.764000000000001,-0.4882,-12.205
16.06,-10.2522,-1.4646000000000001,-11.716800000000001
16.07,-9.764000000000001,-0.9764,-13.6696
16.080000000000002,-9.2758,-0.9764,-12.693200000000001
16.09,-10.740400000000001,-1.4646000000000001,-12.205
16.1,-9.2758,-0.9764,-12.205
16.11,-10.2522,-1.4646000000000001,-13.1814
16.12,-9.764000000000001,-1.4646000000000001,-12.205
16.13,-9.764000000000001,-1.4646000000000001,-12.205
16.14,-9.2758,0.0,-12.205
16.15,-8.787600000000001,-0.9764,-12.205
16.16,-9.2758,-0.9764,-12.693200000000001
16.17,-9.764000000000001,-0.9764,-12.693200000000001
16.18,-8.2994,-0.9764,-13.1814
16.19,-9.764000000000001,-0.4882,-12.693200000000001
16.2,-9.2758,-0.9764,-12.693200000000001
16.21,-9.2758,-1.4646000000000001,-13.1814
16.22,-8.787600000000001,-0.4882,-13.1814
16.23,-9.2758,-0.4882,-13.6696
16.240000000000002,-8.2994,-0.4882,-12.693200000000001
16.25,-8.787600000000001,-0.4882,-12.205
16.26,-8.2994,-0.4882,-12.693200000000001
16.27,-8.2994,-0.4882,-12.693200000000001
16.28,-8.2994,0.4882,-13.1814
16.29,-7.8112,-0.4882,-12.693200000000001
16.3,-8.2994,-0.4882,-13.1814
16.31,-7.8112,0.9764,-13.1814
16.32,-8.787600000000001,0.0,-13.6696
16.330000000000002,-7.8112,0.9764,-12.693200000000001
16.34,-8.787600000000001,0.0,-12.693200000000001
16.35,-8.2994,0.9764,-13.1814
16.36,-8.2994,0.0,-12.693200000000001
16.37,-7.8112,0.9764,-11.716800000000001
16.38,-7.8112,0.0,-12.693200000000001
16.39,-7.8112,0.4882,-12.205
16.4,-7.8112,0.4882,-12.693200000000001
16.41,-8.787600000000001,0.9764,-11.716800000000001
16.42,-7.8112,1.4646000000000001,-11.2286
16.43,-8.787600000000001,0.9764,-12.693200000000001
16.44,-7.8112,0.9764,-12.693200000000001
16.45,-8.787600000000001,1.4646000000000001,-11.2286
16.46,-8.787600000000001,1.9528,-11.2286
16.47,-8.787600000000001,1.4646000000000001,-12.205
16.48,-7.8112,1.9528,-11.716800000000001
16.490000000000002,-8.787600000000001,0.9764,-12.205
16.5,-8.2994,0.4882,-11.2286
16.51,-8.787600000000001,1.9528,-11.716800000000001
16.52,-8.2994,1.4646000000000001,-11.716800000000001
16.53,-8.787600000000001,1.9528,-10.740400000000001
16.54,-9.2758,0.9764,-11.716800000000001
16.55,-8.787600000000001,1.4646000000000001,-11.2286
16.56,-9.2758,0.9764,-10.2522
16.57,-9.2758,1.4646000000000001,-11.2286
16.580000000000002,-8.2994,1.4646000000000001,-10.2522
16.59,-9.2758,0.9764,-10.740400000000001
16.6,-8.787600000000001,1.4646000000000001,-11.2286
16.61,-8.787600000000001,2.9292000000000002,-11.716800000000001
16.62,-10.740400000000001,0.9764,-10.740400000000001
16.63,-9.764000000000001,0.0,-11.2286
16.64,-10.2522,1.4646000000000001,-11.716800000000001
16.65,-10.2522,0.9764,-10.740400000000001
16.66,-10.740400000000001,0.9764,-10.740400000000001
16.67,-9.764000000000001,0.9764,-10.740400000000001
16.68,-10.740400000000001,0.4882,-10.740400000000001
16.69,-9.764000000000001,0.9764,-11.2286
16.7,-9.764000000000001,0.4882,-10.740400000000001
16.71,-10.2522,0.0,-11.2286
16.72,-10.740400000000001,0.9764,-10.2522
16.73,-11.2286,0.4882,-10.740400000000001
16.740000000000002,-11.2286,0.0,-10.2522
16.75,-10.740400000000001,0.9764,-10.740400000000001
16.76,-10.2522,0.4882,-11.2286
16.77,-10.740400000000001,0.4882,-10.740400000000001
16.78,-9.764000000000001,0.9764,-10.2522
16.79,-10.740400000000001,-0.4882,-12.205
16.8,-10.740400000000001,0.0,-11.2286
16.81,-9.2758,-0.4882,-10.2522
16.82,-11.2286,-0.9764,-11.716800000000001
16.830000000000002,-10.2522,0.0,-11.2286
16.84,-10.2522,-1.4646000000000001,-11.716800000000001
16.85,-10.740400000000001,-0.9764,-11.2286
16.86,-10.2522,-0.4882,-11.716800000000001
16.87,-11.2286,-0.9764,-12.205
16.88,-10.2522,-1.4646000000000001,-11.716800000000001
16.89,-10.740400000000001,-0.9764,-11.2286
16.9,-9.764000000000001,-0.9764,-11.716800000000001
16.91,-10.2522,-1.4646000000000001,-11.2286
16.92,-10.2522,-0.9764,-11.2286
16.93,-9.764000000000001,-1.9528,-11.716800000000001
16.94,-10.2522,-1.4646000000000001,-11.716800000000001
16.95,-9.2758,-1.4646000000000001,-12.205
16.96,-9.764000000000001,-1.4646000000000001,-11.2286
16.97,-9.2758,-0.9764,-12.205
16.98,-8.787600000000001,-0.9764,-12.693200000000001
16.990000000000002,-9.2758,-0.9764,-13.1814
17.0,-9.2758,-1.9528,-11.716800000000001
17.01,-8.787600000000001,-1.4646000000000001,-12.693200000000001
17.02,-9.2758,-1.4646000000000001,-12.693200000000001
17.03,-8.2994,-1.4646000000000001,-12.205
17.04,-9.2758,-0.9764,-12.205
17.05,-9.2758,-1.9528,-12.693200000000001
17.06,-8.2994,-0.9764,-12.693200000000001
17.07,-9.2758,-0.9764,-12.693200000000001
17.080000000000002,-8.2994,0.0,-12.693200000000001
17.09,-8.787600000000001,-1.4646000000000001,-12.205
17.1,-8.2994,-1.4646000000000001,-13.1814
17.11,-8.2994,-0.4882,-13.1814
17.12,-8.2994,-0.9764,-12.693200000000001
17.13,-8.2994,0.0,-12.693200000000001
17.14,-9.2758,-1.4646000000000001,-13.1814
17.150000000000002,-8.2994,-0.4882,-12.693200000000001
17.16,-7.8112,0.0,-12.205
17.17,-8.2994,0.0,-12.693200000000001
17.18,-7.323,0.0,-12.205
17.19,-8.2994,-0.4882,-12.693200000000001
17.2,-8.2994,0.0,-13.1814
17.21,-7.8112,0.0,-11.716800000000001
17.22,-7.323,0.4882,-11.2286
17.23,-7.8112,0.0,-12.205
17.240000000000002,-7.8112,0.4882,-12.693200000000001
17.25,-7.8112,0.4882,-12.693200000000001
17.26,-8.2994,0.9764,-12.205
17.27,-7.323,0.9764,-12.205
17.28,-7.323,1.4646000000000001,-11.716800000000001
17.29,-6.8348,0.9764,-12.693200000000001
17.3,-7.8112,0.9764,-11.716800000000001
17.31,-7.8112,1.4646000000000001,-11.2286
17.32,-8.787600000000001,0.9764,-11.2286
17.330000000000002,-8.787600000000001,1.9528,-12.693200000000001
17.34,-7.8112,0.9764,-12.205
17.35,-7.8112,0.9764,-11.716800000000001
17.36,-7.8112,2.4410000000000003,-12.205
17.37,-8.787600000000001,0.9764,-12.205
17.38,-8.787600000000001,1.4646000000000001,-11.2286
17.39,-8.2994,1.9528,-11.2286
17.400000000000002,-7.8112,0.9764,-11.2286
17.41,-9.764000000000001,1.9528,-10.740400000000001
17.42,-8.787600000000001,1.9528,-11.2286
17.43,-8.2994,1.4646000000000001,-11.2286
17.44,-8.787600000000001,1.4646000000000001,-11.716800000000001
17.45,-8.787600000000001,1.4646000000000001,-10.740400000000001
17.46,-8.787600000000001,1.9528,-10.2522
17.47,-8.2994,1.9528,-10.740400000000001
17.48,-9.764000000000001,0.9764,-10.740400000000001
17.490000000000002,-9.764000000000001,0.9764,-10.740400000000001
17.5,-9.2758,0.9764,-10.2522
17.51,-9.764000000000001,1.4646000000000001,-10.2522
17.52,-8.787600000000001,1.4646000000000001,-10.740400000000001
17.53,-9.764000000000001,1.4646000000000001,-10.740400000000001
17.54,-9.2758,0.9764,-10.2522
17.55,-10.2522,0.9764,-10.740400000000001
17.56,-10.2522,1.4646000000000001,-10.740400000000001
17.57,-9.764000000000001,1.4646000000000001,-10.740400000000001
17.580000000000002,-9.764000000000001,0.4882,-10.740400000000001
17.59,-9.764000000000001,0.9764,-10.740400000000001
17.6,-10.740400000000001,0.4882,-11.2286
17.61,-10.2522,1.4646000000000001,-11.2286
17.62,-10.2522,0.4882,-11.716800000000001
17.63,-10.2522,0.9764,-11.2286
17.64,-10.740400000000001,0.9764,-10.740400000000001
17.650000000000002,-11.2286,0.0,-10.740400000000001
17.66,-11.2286,0.4882,-9.764000000000001
17.67,-11.2286,0.4882,-10.740400000000001
17.68,-10.2522,-0.4882,-11.2286
17.69,-10.740400000000001,-0.4882,-11.716800000000001
17.7,-10.740400000000001,-1.4646000000000001,-10.2522
17.71,-10.2522,-0.9764,-11.2286
17.72,-10.740400000000001,-0.4882,-10.2522
17.73,-10.2522,0.0,-10.2522
17.740000000000002,-10.2522,0.0,-11.2286
17.75,-10.740400000000001,-0.9764,-11.2286
17.76,-9.764000000000001,-0.9764,-11.2286
17.77,-10.740400000000001,0.0,-10.740400000000001
17.78,-9.764000000000001,-0.9764,-11.716800000000001
17.79,-10.740400000000001,-0.9764,-11.2286
17.8,-10.740400000000001,-1.4646000000000001,-11.716800000000001
17.81,-11.2286,-0.4882,-11.716800000000001
17.82,-10.2522,-1.4646000000000001,-11.716800000000001
17.830000000000002,-9.764000000000001,-0.9764,-11.716800000000001
17.84,-10.2522,-0.9764,-12.205
17.85,-10.2522,-1.4646000000000001,-11.716800000000001
17.86,-10.740400000000001,-1.4646000000000001,-11.2286
17.87,-9.764000000000001,-0.9764,-12.205
17.88,-10.2522,-1.4646000000000001,-12.205
17.89,-9.764000000000001,-1.4646000000000001,-12.693200000000001
17.900000000000002,-9.764000000000001,-0.9764,-12.205
17.91,-9.764000000000001,-1.4646000000000001,-11.716800000000001
17.92,-9.2758,-1.4646000000000001,-11.716800000000001
17.93,-9.764000000000001,-1.9528,-12.693200000000001
17.94,-9.2758,-1.4646000000000001,-11.716800000000001
17.95,-8.787600000000001,-1.4646000000000001,-12.205
17.96,-9.2758,-1.4646000000000001,-12.205
17.97,-9.2758,-1.9528,-11.716800000000001
17.98,-9.2758,-1.4646000000000001,-12.205
17.990000000000002,-9.764000000000001,-1.4646000000000001,-12.693200000000001
18.0,-8.787600000000001,-0.9764,-12.693200000000001
18.01,-9.2758,-0.9764,-12.693200000000001
18.02,-8.2994,-1.4646000000000001,-12.693200000000001
18.03,-7.8112,-1.4646000000000001,-11.716800000000001
18.04,-8.787600000000001,-1.4646000000000001,-12.205
18.05,-7.8112,-0.4882,-12.693200000000001
18.06,-9.2758,-0.9764,-12.205
18.07,-7.8112,-1.4646000000000001,-12.693200000000001
18.080000000000002,-8.787600000000001,-1.4646000000000001,-12.205
18.09,-8.2994,-1.4646000000000001,-13.6696
18.1,-7.323,-0.4882,-12.205
18.11,-8.2994,-0.4882,-13.1814
18.12,-8.2994,-0.4882,-12.693200000000001
18.13,-8.2994,-0.4882,-12.205
18.14,-8.2994,0.0,-12.693200000000001
18.150000000000002,-7.8112,0.0,-13.6696
18.16,-7.323,0.4882,-12.693200000000001
18.17,-7.323,0.0,-13.6696
18.18,-7.323,-0.4882,-11.2286
18.19,-7.8112,0.0,-11.716800000000001
18.2,-7.323,0.4882,-12.693200000000001
18.21,-7.8112,0.4882,-12.693200000000001
18.22,-8.2994,0.9764,-12.693200000000001
18.23,-7.8112,0.9764,-13.1814
18.240000000000002,-7.8112,0.4882,-12.205
18.25,-7.8112,0.4882,-12.205
18.26,-8.2994,0.4882,-11.716800000000001
18.27,-7.8112,0.4882,-12.205
18.28,-8.2994,0.4882,-12.693200000000001
18.29,-8.2994,1.4646000000000001,-12.205
18.3,-7.323,0.9764,-12.205
18.31,-8.2994,0.4882,-11.2286
18.32,-8.2994,2.9292000000000002,-11.2286
18.330000000000002,-7.8112,0.4882,-11.2286
18.34,-7.8112,1.4646000000000001,-11.716800000000001
18.35,-8.787600000000001,2.9292000000000002,-11.716800000000001
18.36,-8.2994,1.9528,-11.2286
18.37,-8.787600000000001,1.4646000000000001,-11.2286
18.38,-7.8112,0.9764,-11.716800000000001
18.39,-7.8112,1.9528,-11.2286
18.400000000000002,-8.2994,2.4410000000000003,-10.740400000000001
18.41,-8.2994,1.4646000000000001,-10.2522
18.42,-9.764000000000001,0.9764,-11.2286
18.43,-8.787600000000001,1.4646000000000001,-11.2286
18.44,-8.787600000000001,2.4410000000000003,-10.2522
18.45,-9.2758,1.4646000000000001,-11.2286
18.46,-9.2758,1.4646000000000001,-10.740400000000001
18.47,-8.787600000000001,1.9528,-10.2522
18.48,-8.2994,1.4646000000000001,-10.740400000000001
18.490000000000002,-9.764000000000001,1.9528,-11.2286
18.5,-9.2758,1.4646000000000001,-10.740400000000001
18.51,-8.787600000000001,0.9764,-10.2522
18.52,-10.2522,1.4646000000000001,-10.740400000000001
18.53,-9.2758,0.9764,-10.2522
18.54,-9.764000000000001,0.4882,-9.2758
18.55,-9.764000000000001,1.4646000000000001,-10.2522
18.56,-10.2522,-0.4882,-10.740400000000001
18.57,-9.2758,0.9764,-10.740400000000001
18.580000000000002,-8.787600000000001,0.9764,-10.2522
18.59,-10.2522,0.4882,-10.740400000000001
18.6,-9.2758,0.9764,-10.740400000000001
18.61,-10.2522,1.4646000000000001,-10.2522
18.62,-9.764000000000001,0.4882,-10.2522
18.63,-10.740400000000001,0.9764,-10.740400000000001
18.64,-9.764000000000001,0.4882,-10.2522
18.650000000000002,-10.2522,0.9764,-10.2522
18.66,-10.2522,0.0,-10.740400000000001
18.67,-10.2522,0.0,-10.740400000000001
18.68,-9.764000000000001,0.0,-10.740400000000001
18.69,-10.2522,-0.4882,-11.2286
18.7,-10.740400000000001,-0.4882,-10.740400000000001
18.71,-10.2522,-0.4882,-10.2522
18.72,-9.764000000000001,0.0,-10.740400000000001
18.73,-10.2522,-0.4882,-11.2286
18.740000000000002,-10.740400000000001,-0.9764,-10.2522
18.75,-10.2522,-1.4646000000000001,-10.740400000000001
18.76,-10.2522,-0.4882,-10.2522
18.77,-10.740400000000001,-0.4882,-10.740400000000001
18.78,-10.2522,-0.4882,-11.2286
18.79,-10.740400000000001,-0.4882,-12.205
18.8,-11.716800000000001,-0.4882,-9.764000000000001
18.81,-10.2522,-1.9528,-11.716800000000001
18.82,-10.740400000000001,-0.9764,-11.2286
18.830000000000002,-10.2522,-0.9764,-11.716800000000001
18.84,-10.740400000000001,-0.9764,-10.740400000000001
18.85,-10.740400000000001,-1.9528,-10.740400000000001
18.86,-9.764000000000001,-0.9764,-11.2286
18.87,-9.764000000000001,-1.4646000000000001,-11.716800000000001
18.88,-10.2522,-0.9764,-12.205
18.89,-10.740400000000001,-0.9764,-12.205
18.900000000000002,-10.2522,-1.4646000000000001,-12.205
18.91,-9.2758,-0.9764,-12.205
18.92,-10.2522,-1.9528,-11.716800000000001
18.93,-9.764000000000001,-1.9528,-11.716800000000001
18.94,-9.764000000000001,-2.4410000000000003,-12.205
18.95,-9.764000000000001,-1.4646000000000001,-12.205
18.96,-9.2758,-1.4646000000000001,-12.693200000000001
18.97,-11.2286,-0.9764,-12.693200000000001
18.98,-8.787600000000001,-1.4646000000000001,-11.716800000000001
18.990000000000002,-8.787600000000001,-1.9528,-12.205
19.0,-9.2758,-0.9764,-12.205
19.01,-7.8112,-1.9528,-12.205
19.02,-8.787600000000001,-0.9764,-12.693200000000001
19.03,-9.764000000000001,-1.4646000000000001,-12.693200000000001
19.04,-9.2758,-1.4646000000000001,-12.205
19.05,-8.787600000000001,-1.9528,-12.693200000000001
19.06,-9.764000000000001,-0.9764,-12.205
19.07,-8.787600000000001,-1.9528,-11.716800000000001
19.080000000000002,-8.2994,-1.9528,-12.205
19.09,-8.2994,-1.4646000000000001,-12.693200000000001
19.1,-8.2994,-1.4646000000000001,-12.205
19.11,-8.787600000000001,-0.4882,-12.205
19.12,-8.2994,-1.4646000000000001,-12.693200000000001
19.13,-8.2994,-1.4646000000000001,-12.693200000000001
19.14,-7.8112,-1.4646000000000001,-12.693200000000001
19.150000000000002,-7.323,-0.9764,-13.1814
19.16,-8.2994,-0.9764,-11.716800000000001
19.17,-7.323,-0.4882,-12.693200000000001
19.18,-7.8112,-0.9764,-12.205
19.19,-6.8348,0.0,-12.693200000000001
19.2,-7.8112,-0.9764,-12.205
19.21,-7.8112,-0.9764,-11.716800000000001
19.22,-8.2994,-0.4882,-12.205
19.23,-7.323,-0.4882,-12.693200000000001
19.240000000000002,-7.323,-0.4882,-12.205
19.25,-8.2994,-0.4882,-12.205
19.26,-7.323,0.0,-12.205
19.27,-6.8348,-0.4882,-12.205
19.28,-7.323,0.9764,-12.205
19.29,-6.8348,0.0,-12.205
19.3,-7.323,0.4882,-12.205
19.31,-7.323,0.9764,-12.205
19.32,-6.8348,0.9764,-11.716800000000001
19.330000000000002,-7.8112,-0.4882,-12.205
19.34,-7.8112,0.9764,-11.2286
19.35,-7.323,0.9764,-11.716800000000001
19.36,-6.8348,0.9764,-12.693200000000001
19.37,-7.8112,0.9764,-11.2286
19.38,-6.8348,0.9764,-11.716800000000001
19.39,-7.323,0.9764,-12.205
19.400000000000002,-8.2994,0.9764,-11.716800000000001
19.41,-6.8348,1.4646000000000001,-12.693200000000001
19.42,-8.2994,1.4646000000000001,-11.716800000000001
19.43,-7.8112,0.9764,-11.716800000000001
19.44,-7.8112,0.4882,-11.2286
19.45,-7.8112,2.4410000000000003,-12.205
19.46,-6.8348,1.9528,-11.2286
19.47,-8.2994,1.4646000000000001,-11.2286
19.48,-7.8112,1.4646000000000001,-11.2286
19.490000000000002,-7.8112,1.4646000000000001,-11.716800000000001
19.5,-8.2994,1.9528,-11.2286
19.51,-8.2994,0.4882,-10.740400000000001
19.52,-8.2994,1.4646000000000001,-10.740400000000001
19.53,-8.2994,0.9764,-10.740400000000001
19.54,-7.8112,2.4410000000000003,-10.740400000000001
19.55,-8.787600000000001,2.4410000000000003,-11.2286
19.56,-9.2758,1.9528,-10.740400000000001
19.57,-9.2758,0.4882,-10.740400000000001
19.580000000000002,-9.2758,1.9528,-11.2286
19.59,-8.787600000000001,1.4646000000000001,-10.740400000000001
19.6,-9.2758,0.9764,-10.740400000000001
19.61,-8.787600000000001,1.4646000000000001,-10.740400000000001
19.62,-9.764000000000001,1.4646000000000001,-10.2522
19.63,-9.2758,1.4646000000000001,-10.2522
19.64,-8.787600000000001,0.0,-10.2522
19.650000000000002,-9.2758,1.4646000000000001,-10.740400000000001
19.66,-9.764000000000001,1.4646000000000001,-10.740400000000001
19.67,-9.764000000000001,0.9764,-9.2758
19.68,-9.764000000000001,0.9764,-10.2522
19.69,-10.2522,0.9764,-10.2522
19.7,-10.740400000000001,1.4646000000000001,-10.740400000000001
19.71,-9.764000000000001,0.9764,-8.787600000000001
19.72,-9.764000000000001,0.4882,-9.764000000000001
19.73,-10.2522,0.9764,-10.2522
19.740000000000002,-10.2522,0.0,-10.2522
19.75,-9.764000000000001,0.9764,-10.2522
19.76,-9.764000000000001,0.9764,-9.764000000000001
19.77,-11.2286,0.4882,-10.2522
19.78,-10.2522,1.4646000000000001,-10.740400000000001
19.79,-10.2522,-0.4882,-10.2522
19.8,-10.2522,0.4882,-9.764000000000001
19.81,-9.764000000000001,0.0,-10.2522
19.82,-9.764000000000001,-0.4882,-10.2522
19.830000000000002,-10.740400000000001,0.0,-10.2522
19.84,-10.2522,0.4882,-9.764000000000001
19.85,-10.740400000000001,0.0,-10.2522
19.86,-10.2522,-0.4882,-11.716800000000001
19.87,-10.2522,0.4882,-10.2522
19.88,-10.2522,-0.4882,-11.2286
19.89,-11.2286,0.0,-10.740400000000001
19.900000000000002,-10.2522,-0.4882,-11.716800000000001
19.91,-10.2522,0.0,-9.764000000000001
19.92,-11.716800000000001,-0.9764,-10.740400000000001
19.93,-10.740400000000001,-0.9764,-10.2522
19.94,-10.2522,-0.9764,-10.740400000000001
19.95,-10.2522,-0.9764,-10.2522
19.96,-10.2522,-0.9764,-11.716800000000001
19.97,-10.740400000000001,-1.4646000000000001,-11.2286
19.98,-10.740400000000001,-1.9528,-11.2286
19.990000000000002,-10.2522,-1.4646000000000001,-10.740400000000001
20.0,-11.2286,-1.9528,-10.740400000000001
20.01,-10.2522,-0.9764,-11.2286
20.02,-10.2522,-1.9528,-10.740400000000001
20.03,-10.2522,-1.9528,-11.2286
20.04,-9.2758,-2.9292000000000002,-10.740400000000001
20.05,-11.2286,-1.4646000000000001,-10.2522
20.06,-9.2758,-1.4646000000000001,-10.740400000000001
20.07,-9.764000000000001,-1.9528,-11.716800000000001
20.080000000000002,-10.2522,-1.9528,-11.716800000000001
20.09,-10.740400000000001,-0.9764,-11.2286
20.1,-9.764000000000001,-2.4410000000000003,-11.716800000000001
20.11,-10.2522,-1.4646000000000001,-11.716800000000001
20.12,-9.764000000000001,-2.4410000000000003,-11.2286
20.13,-9.764000000000001,-1.4646000000000001,-11.716800000000001
20.14,-10.2522,-1.9528,-11.716800000000001
20.150000000000002,-9.2758,-1.4646000000000001,-12.205
20.16,-9.764000000000001,-1.9528,-12.205
20.17,-9.764000000000001,-2.4410000000000003,-12.205
20.18,-9.2758,-1.9528,-12.205
20.19,-9.2758,-1.4646000000000001,-12.205
20.2,-9.764000000000001,-1.9528,-13.1814
20.21,-8.787600000000001,-2.4410000000000003,-12.205
20.22,-8.2994,-2.4410000000000003,-11.716800000000001
20.23,-8.2994,-1.9528,-12.205
20.240000000000002,-9.2758,-1.9528,-11.716800000000001
20.25,-8.787600000000001,-0.4882,-11.716800000000001
20.26,-8.2994,-1.4646000000000001,-12.693200000000001
20.27,-7.8112,-1.9528,-12.205
20.28,-8.2994,-0.4882,-12.693200000000001
20.29,-7.8112,-1.4646000000000001,-12.205
20.3,-8.2994,-0.4882,-11.716800000000001
20.31,-8.2994,-1.4646000000000001,-12.693200000000001
20.32,-8.2994,-1.9528,-11.716800000000001
20.330000000000002,-8.787600000000001,-1.4646000000000001,-12.693200000000001
20.34,-7.8112,-1.4646000000000001,-12.693200000000001
20.35,-7.8112,-0.9764,-12.693200000000001
20.36,-8.2994,-1.4646000000000001,-12.693200000000001
20.37,-7.8112,-0.9764,-12.205
20.38,-7.323,-1.4646000000000001,-11.716800000000001
20.39,-7.8112,-0.4882,-12.205
20.400000000000002,-7.323,-0.9764,-12.693200000000001
20.41,-7.8112,-0.4882,-12.205
20.42,-6.8348,0.0,-11.2286
20.43,-7.8112,-0.9764,-11.716800000000001
20.44,-7.8112,-0.4882,-11.2286
20.45,-7.323,-0.9764,-12.693200000000001
20.46,-7.323,-0.4882,-12.693200000000001
20.47,-7.323,-0.4882,-12.205
20.48,-7.323,-0.4882,-12.205
20.490000000000002,-7.323,-0.4882,-12.693200000000001
20.5,-6.8348,-0.4882,-12.205
20.51,-7.323,0.0,-12.205
20.52,-7.323,0.0,-12.693200000000001
20.53,-6.8348,0.4882,-12.693200000000001
20.54,-7.323,0.4882,-12.205
20.55,-7.8112,0.4882,-12.693200000000001
20.56,-7.323,-0.4882,-11.716800000000001
20.57,-7.323,0.4882,-11.2286
20.580000000000002,-6.8348,0.9764,-11.716800000000001
20.59,-7.8112,0.4882,-11.2286
20.6,-6.8348,1.4646000000000001,-12.205
20.61,-7.323,0.9764,-11.716800000000001
20.62,-7.8112,1.4646000000000001,-12.205
20.63,-7.323,0.0,-11.2286
20.64,-7.323,0.9764,-12.205
20.650000000000002,-8.2994,0.4882,-11.716800000000001
20.66,-7.8112,0.9764,-11.716800000000001
20.67,-7.8112,1.4646000000000001,-12.205
20.68,-8.2994,0.4882,-12.205
20.69,-7.323,1.9528,-11.2286
20.7,-7.323,0.9764,-10.2522
20.71,-7.8112,0.9764,-11.2286
20.72,-8.2994,1.4646000000000001,-11.2286
20.73,-8.2994,2.9292000000000002,-11.2286
20.740000000000002,-8.787600000000001,0.9764,-11.2286
20.75,-8.787600000000001,2.4410000000000003,-10.740400000000001
20.76,-7.8112,1.9528,-10.740400000000001
20.77,-8.2994,2.9292000000000002,-10.740400000000001
20.78,-8.2994,0.9764,-10.2522
20.79,-8.2994,1.9528,-11.2286
20.8,-7.323,1.9528,-10.740400000000001
20.81,-8.787600000000001,1.4646000000000001,-10.2522
20.82,-8.787600000000001,1.4646000000000001,-10.740400000000001
20.830000000000002,-8.2994,1.4646000000000001,-10.2522
20.84,-7.8112,1.4646000000000001,-10.740400000000001
20.85,-7.8112,0.9764,-11.2286
20.86,-9.2758,1.4646000000000001,-10.740400000000001
20.87,-8.787600000000001,1.9528,-10.2522
20.88,-8.787600000000001,1.4646000000000001,-10.2522
20.89,-8.787600000000001,2.4410000000000003,-9.764000000000001
20.900000000000002,-9.764000000000001,1.9528,-9.764000000000001
20.91,-9.764000000000001,0.9764,-10.2522
20.92,-9.764000000000001,0.9764,-9.764000000000001
20.93,-9.2758,0.4882,-10.2522
20.94,-9.2758,1.9528,-9.764000000000001
20.95,-9.2758,0.9764,-10.740400000000001
20.96,-9.2758,0.4882,-9.2758
20.97,-8.787600000000001,0.9764,-9.764000000000001
20.98,-9.2758,1.4646000000000001,-10.2522
20.990000000000002,-10.740400000000001,1.4646000000000001,-9.2758
21.0,-10.2522,1.4646000000000001,-9.764000000000001
21.01,-10.2522,1.4646000000000001,-9.2758
21.02,-10.2522,0.9764,-10.2522
21.03,-9.764000000000001,0.9764,-10.2522
21.04,-10.740400000000001,0.4882,-9.2758
21.05,-10.740400000000001,0.4882,-10.2522
21.06,-9.764000000000001,0.9764,-8.787600000000001
21.07,-10.740400000000001,0.0,-9.2758
21.080000000000002,-10.740400000000001,0.9764,-9.2758
21.09,-10.2522,0.4882,-9.764000000000001
21.1,-10.2522,0.4882,-10.2522
21.11,-10.2522,1.4646000000000001,-9.764000000000001
21.12,-10.2522,-0.4882,-9.764000000000001
21.13,-10.740400000000001,-0.4882,-9.764000000000001
21.14,-11.2286,0.0,-9.764000000000001
21.150000000000002,-10.740400000000001,0.9764,-9.2758
21.16,-10.2522,0.4882,-9.2758
21.17,-11.2286,-0.4882,-9.2758
21.18,-10.2522,0.0,-10.2522
21.19,-10.740400000000001,-0.9764,-9.764000000000001
21.2,-11.2286,0.4882,-10.2522
21.21,-10.2522,-0.9764,-10.2522
21.22,-10.740400000000001,0.0,-10.2522
21.23,-10.2522,-0.4882,-10.2522
21.240000000000002,-10.740400000000001,-0.9764,-10.2522
21.25,-11.716800000000001,-0.4882,-11.2286
21.26,-11.2286,-0.9764,-10.2522
21.27,-10.740400000000001,-0.9764,-11.2286
21.28,-10.740400000000001,-0.9764,-10.2522
21.29,-10.2522,-0.9764,-9.764000000000001
21.3,-10.740400000000001,-1.9528,-11.2286
21.31,-10.740400000000001,-1.4646000000000001,-10.740400000000001
21.32,-10.740400000000001,-1.4646000000000001,-11.2286
21.330000000000002,-9.764000000000001,-1.4646000000000001,-11.2286
21.34,-11.2286,-1.4646000000000001,-10.740400000000001
21.35,-10.740400000000001,-1.4646000000000001,-10.740400000000001
21.36,-10.2522,-1.4646000000000001,-11.2286
21.37,-10.740400000000001,-0.9764,-11.2286
21.38,-9.764000000000001,-1.9528,-10.2522
21.39,-10.2522,-0.9764,-10.740400000000001
21.400000000000002,-10.740400000000001,-1.9528,-10.740400000000001
21.41,-9.764000000000001,-2.4410000000000003,-11.716800000000001
21.42,-9.764000000000001,-1.4646000000000001,-11.2286
21.43,-10.2522,-1.9528,-11.2286
21.44,-9.764000000000001,-1.4646000000000001,-10.740400000000001
21.45,-10.2522,-2.4410000000000003,-11.2286
21.46,-9.764000000000001,-2.4410000000000003,-11.2286
21.47,-10.740400000000001,-1.9528,-11.2286
21.48,-9.764000000000001,-1.4646000000000001,-11.716800000000001
21.490000000000002,-10.2522,-2.4410000000000003,-12.205
21.5,-9.764000000000001,-2.4410000000000003,-12.205
21.51,-9.764000000000001,-2.9292000000000002,-11.716800000000001
21.52,-9.2758,-1.4646000000000001,-11.2286
21.53,-10.740400000000001,-1.9528,-11.716800000000001
21.54,-9.2758,-1.9528,-12.205
21.55,-9.2758,-2.4410000000000003,-12.205
21.56,-8.787600000000001,-2.4410000000000003,-12.693200000000001
21.57,-10.2522,-2.4410000000000003,-11.716800000000001
21.580000000000002,-9.2758,-2.9292000000000002,-12.205
21.59,-9.764000000000001,-2.9292000000000002,-12.693200000000001
21.6,-9.2758,-2.4410000000000003,-12.205
21.61,-9.764000000000001,-2.9292000000000002,-11.2286
21.62,-9.2758,-2.4410000000000003,-11.2286
21.63,-8.2994,-2.9292000000000002,-12.205
21.64,-8.787600000000001,-2.9292000000000002,-12.205
21.650000000000002,-8.2994,-1.9528,-11.716800000000001
21.66,-8.787600000000001,-2.4410000000000003,-12.205
21.67,-9.764000000000001,-1.9528,-12.693200000000001
21.68,-7.323,-2.9292000000000002,-13.1814
21.69,-9.2758,-1.9528,-12.205
21.7,-8.2994,-2.4410000000000003,-12.205
21.71,-9.2758,-1.9528,-13.1814
21.72,-8.2994,-1.9528,-12.693200000000001
21.73,-8.2994,-1.9528,-12.205
21.740000000000002,-8.787600000000001,-1.4646000000000001,-12.693200000000001
21.75,-7.8112,-1.9528,-12.205
21.76,-8.2994,-0.9764,-12.693200000000001
21.77,-8.2994,-1.9528,-12.693200000000001
21.78,-7.323,-1.9528,-12.693200000000001
21.79,-7.323,-1.9528,-13.1814
21.8,-7.8112,-1.4646000000000001,-12.205
21.81,-7.8112,-1.4646000000000001,-13.1814
21.82,-7.323,-1.9528,-13.1814
21.830000000000002,-6.3466000000000005,-1.9528,-12.205
21.84,-7.8112,-0.9764,-12.693200000000001
21.85,-7.323,-0.9764,-12.693200000000001
21.86,-7.8112,-1.4646000000000001,-12.693200000000001
21.87,-6.8348,-1.4646000000000001,-12.693200000000001
21.88,-6.3466000000000005,0.0,-12.205
21.89,-6.8348,-1.4646000000000001,-12.205
21.900000000000002,-6.8348,-0.4882,-12.205
21.91,-6.3466000000000005,-0.4882,-11.716800000000001
21.92,-6.8348,-1.4646000000000001,-12.693200000000001
21.93,-6.3466000000000005,0.0,-12.205
21.94,-6.8348,-0.4882,-12.693200000000001
21.95,-6.8348,-0.9764,-12.693200000000001
21.96,-6.8348,0.0,-12.693200000000001
21.97,-6.8348,-0.4882,-12.693200000000001
21.98,-6.3466000000000005,0.4882,-12.205
21.990000000000002,-6.8348,0.4882,-12.693200000000001
22.0,-6.3466000000000005,0.4882,-11.716800000000001
22.01,-7.8112,0.9764,-12.693200000000001
22.02,-7.8112,0.0,-12.205
22.03,-6.8348,0.0,-12.205
22.04,-7.323,0.0,-12.205
22.05,-7.323,0.0,-12.205
22.06,-6.3466000000000005,0.4882,-11.716800000000001
22.07,-7.323,0.4882,-11.716800000000001
22.080000000000002,-7.8112,1.4646000000000001,-11.716800000000001
22.09,-5.8584000000000005,0.4882,-11.2286
22.1,-6.3466000000000005,1.4646000000000001,-11.716800000000001
22.11,-6.8348,0.4882,-11.716800000000001
22.12,-6.8348,0.4882,-11.716800000000001
22.13,-7.323,1.4646000000000001,-11.716800000000001
22.14,-7.8112,1.4646000000000001,-11.716800000000001
22.150000000000002,-6.3466000000000005,1.4646000000000001,-11.716800000000001
22.16,-6.3466000000000005,0.9764,-11.716800000000001
22.17,-6.3466000000000005,1.4646000000000001,-11.2286
22.18,-7.323,2.4410000000000003,-11.2286
22.19,-6.8348,0.4882,-11.2286
22.2,-6.8348,0.9764,-10.740400000000001
22.21,-6.8348,1.4646000000000001,-11.716800000000001
22.22,-6.8348,1.4646000000000001,-11.716800000000001
22.23,-7.8112,1.9528,-10.740400000000001
22.240000000000002,-6.3466000000000005,1.4646000000000001,-11.2286
22.25,-6.8348,1.9528,-11.2286
22.26,-7.8112,2.4410000000000003,-11.2286
22.27,-7.8112,1.9528,-11.2286
22.28,-7.323,1.9528,-10.740400000000001
22.29,-7.323,1.4646000000000001,-9.764000000000001
22.3,-6.8348,1.4646000000000001,-11.2286
22.31,-7.8112,2.4410000000000003,-10.2522
22.32,-6.8348,1.9528,-10.2522
22.330000000000002,-8.787600000000001,1.4646000000000001,-9.764000000000001
22.34,-7.8112,2.4410000000000003,-10.740400000000001
22.35,-7.8112,2.4410000000000003,-9.764000000000001
22.36,-7.8112,0.9764,-10.740400000000001
22.37,-8.2994,2.9292000000000002,-9.764000000000001
22.38,-8.2994,1.9528,-10.2522
22.39,-7.8112,2.4410000000000003,-10.740400000000001
22.400000000000002,-8.2994,2.4410000000000003,-10.2522
22.41,-8.2994,2.4410000000000003,-10.2522
22.42,-8.2994,2.9292000000000002,-10.2522
22.43,-8.787600000000001,2.4410000000000003,-9.2758
22.44,-8.2994,2.4410000000000003,-8.2994
22.45,-8.2994,1.9528,-9.764000000000001
22.46,-9.2758,1.9528,-9.2758
22.47,-8.2994,1.4646000000000001,-10.740400000000001
22.48,-8.787600000000001,1.4646000000000001,-8.787600000000001
22.490000000000002,-8.787600000000001,2.4410000000000003,-9.2758
22.5,-8.2994,1.9528,-9.2758
22.51,-9.2758,0.4882,-9.2758
22.52,-9.764000000000001,1.4646000000000001,-8.787600000000001
22.53,-9.764000000000001,1.4646000000000001,-9.2758
22.54,-8.2994,1.9528,-8.787600000000001
22.55,-8.787600000000001,1.4646000000000001,-9.764000000000001
22.56,-8.787600000000001,1.9528,-9.764000000000001
22.57,-9.2758,1.4646000000000001,-9.764000000000001
22.580000000000002,-9.764000000000001,1.9528,-8.2994
22.59,-10.740400000000001,1.4646000000000001,-9.764000000000001
22.6,-10.740400000000001,1.4646000000000001,-8.787600000000001
22.61,-9.2758,1.4646000000000001,-8.787600000000001
22.62,-9.764000000000001,0.9764,-9.2758
22.63,-10.740400000000001,1.4646000000000001,-8.787600000000001
22.64,-9.2758,1.4646000000000001,-9.2758
22.650000000000002,-10.740400000000001,0.4882,-8.2994
22.66,-10.2522,0.9764,-9.2758
22.67,-10.2522,0.9764,-8.2994
22.68,-11.2286,0.9764,-8.787600000000001
22.69,-10.740400000000001,0.4882,-9.2758
22.7,-10.2522,1.9528,-9.2758
22.71,-10.740400000000001,0.0,-8.787600000000001
22.72,-9.764000000000001,0.9764,-8.2994
22.73,-10.2522,0.9764,-8.787600000000001
22.740000000000002,-10.2522,0.9764,-9.764000000000001
22.75,-10.740400000000001,0.9764,-9.764000000000001
22.76,-10.740400000000001,0.9764,-8.787600000000001
22.77,-11.2286,0.4882,-9.2758
22.78,-10.740400000000001,0.4882,-8.787600000000001
22.79,-10.740400000000001,0.4882,-8.787600000000001
22.8,-10.740400000000001,-0.4882,-9.2758
22.81,-10.740400000000001,0.4882,-9.764000000000001
22.82,-10.740400000000001,0.9764,-9.764000000000001
22.830000000000002,-11.2286,-0.4882,-9.2758
22.84,-11.716800000000001,-0.4882,-8.787600000000001
22.85,-10.2522,0.0,-9.2758
22.86,-10.740400000000001,-0.9764,-9.764000000000001
22.87,-11.2286,0.0,-8.787600000000001
22.88,-11.2286,-0.9764,-9.2758
22.89,-11.716800000000001,-0.4882,-8.787600000000001
22.900000000000002,-9.764000000000001,-0.9764,-9.2758
22.91,-12.205,-0.9764,-9.2758
22.92,-11.2286,-1.4646000000000001,-10.2522
22.93,-10.740400000000001,-0.9764,-9.764000000000001
22.94,-9.764000000000001,-1.9528,-9.2758
22.95,-10.740400000000001,-0.9764,-9.764000000000001
22.96,-11.2286,-1.9528,-9.2758
22.97,-10.740400000000001,-1.4646000000000001,-9.764000000000001
22.98,-11.2286,-0.9764,-9.764000000000001
22.990000000000002,-11.2286,-1.9528,-9.764000000000001
23.0,-10.740400000000001,-1.4646000000000001,-10.2522
23.01,-11.716800000000001,-1.4646000000000001,-8.787600000000001
23.02,-10.740400000000001,-1.9528,-9.2758
23.03,-10.740400000000001,-1.9528,-10.2522
23.04,-11.2286,-1.4646000000000001,-10.2522
23.05,-10.740400000000001,-1.9528,-9.764000000000001
23.06,-11.716800000000001,-1.4646000000000001,-9.764000000000001
23.07,-10.740400000000001,-1.9528,-9.764000000000001
23.080000000000002,-10.740400000000001,-2.4410000000000003,-10.2522
23.09,-10.740400000000001,-1.4646000000000001,-10.740400000000001
23.1,-11.2286,-2.4410000000000003,-9.764000000000001
23.11,-11.716800000000001,-2.4410000000000003,-10.740400000000001
23.12,-11.716800000000001,-3.4174,-10.2522
23.13,-10.2522,-2.4410000000000003,-10.740400000000001
23.14,-11.2286,-2.4410000000000003,-10.2522
23.150000000000002,-10.740400000000001,-3.4174,-10.2522
23.16,-10.740400000000001,-1.9528,-10.2522
23.17,-9.764000000000001,-2.9292000000000002,-11.716800000000001
23.18,-9.2758,-3.4174,-11.716800000000001
23.19,-10.2522,-3.4174,-11.716800000000001
23.2,-10.2522,-2.4410000000000003,-10.2522
23.21,-10.2522,-2.9292000000000002,-10.740400000000001
23.22,-10.2522,-3.4174,-11.716800000000001
23.23,-10.2522,-3.4174,-10.740400000000001
23.240000000000002,-9.2758,-3.9056,-11.2286
23.25,-9.764000000000001,-3.4174,-12.205
23.26,-10.740400000000001,-2.4410000000000003,-11.716800000000001
23.27,-10.2522,-2.9292000000000002,-10.740400000000001
23.28,-9.764000000000001,-3.4174,-11.2286
23.29,-10.2522,-2.9292000000000002,-12.693200000000001
23.3,-9.2758,-3.9056,-11.2286
23.31,-9.764000000000001,-3.9056,-11.716800000000001
23.32,-9.764000000000001,-3.4174,-11.716800000000001
23.330000000000002,-9.2758,-3.9056,-12.205
23.34,-9.2758,-3.4174,-11.716800000000001
23.35,-9.764000000000001,-2.9292000000000002,-12.205
23.36,-8.787600000000001,-2.9292000000000002,-12.693200000000001
23.37,-9.764000000000001,-2.9292000000000002,-12.205
23.38,-9.2758,-2.9292000000000002,-12.205
23.39,-8.787600000000001,-2.9292000000000002,-12.205
23.400000000000002,-9.2758,-2.9292000000000002,-12.693200000000001
23.41,-8.2994,-3.4174,-12.693200000000001
23.42,-9.2758,-2.9292000000000002,-12.205
23.43,-8.787600000000001,-3.9056,-12.693200000000001
23.44,-8.2994,-2.9292000000000002,-11.716800000000001
23.45,-8.2994,-2.9292000000000002,-12.693200000000001
23.46,-8.2994,-2.4410000000000003,-12.693200000000001
23.47,-7.8112,-2.9292000000000002,-12.693200000000001
23.48,-8.787600000000001,-2.9292000000000002,-12.693200000000001
23.490000000000002,-7.8112,-2.4410000000000003,-12.693200000000001
23.5,-7.8112,-3.4174,-12.693200000000001
23.51,-7.323,-2.4410000000000003,-13.1814
23.52,-7.8112,-3.4174,-12.693200000000001
23.53,-8.2994,-2.4410000000000003,-13.1814
23.54,-7.323,-2.9292000000000002,-13.1814
23.55,-7.323,-2.4410000000000003,-13.1814
23.56,-8.2994,-3.4174,-13.1814
23.57,-7.8112,-2.9292000000000002,-12.693200000000001
23.580000000000002,-8.2994,-1.9528,-13.1814
23.59,-8.2994,-3.9056,-13.6696
23.6,-7.323,-3.4174,-13.1814
23.61,-7.323,-2.9292000000000002,-13.1814
23.62,-7.323,-2.4410000000000003,-11.716800000000001
23.63,-7.323,-1.9528,-13.6696
23.64,-7.323,-2.4410000000000003,-13.1814
23.650000000000002,-5.8584000000000005,-1.4646000000000001,-12.693200000000001
23.66,-6.3466000000000005,-2.4410000000000003,-13.1814
23.67,-7.323,-1.9528,-14.1578
23.68,-6.3466000000000005,-0.9764,-12.693200000000001
23.69,-6.3466000000000005,-1.4646000000000001,-13.6696
23.7,-6.3466000000000005,-1.9528,-12.205
23.71,-5.8584000000000005,-1.9528,-13.1814
23.72,-5.8584000000000005,-1.9528,-13.6696
23.73,-6.3466000000000005,-1.9528,-13.1814
23.740000000000002,-5.8584000000000005,-0.9764,-11.716800000000001
23.75,-6.3466000000000005,-0.9764,-13.1814
23.76,-6.3466000000000005,-1.4646000000000001,-13.1814
23.77,-6.8348,-1.4646000000000001,-12.205
23.78,-5.8584000000000005,-0.9764,-13.6696
23.79,-5.8584000000000005,-0.9764,-12.205
23.8,-5.8584000000000005,-0.9764,-12.693200000000001
23.81,-6.3466000000000005,-1.4646000000000001,-12.693200000000001
23.82,-5.3702000000000005,-1.4646000000000001,-13.1814
23.830000000000002,-5.8584000000000005,-0.4882,-13.1814
23.84,-4.882000000000001,-0.4882,-12.693200000000001
23.85,-4.882000000000001,-0.4882,-12.693200000000001
23.86,-5.3702000000000005,-0.4882,-13.1814
23.87,-5.3702000000000005,0.4882,-12.693200000000001
23.88,-5.3702000000000005,0.0,-12.693200000000001
23.89,-4.882000000000001,0.0,-12.693200000000001
23.900000000000002,-5.8584000000000005,0.4882,-12.205
23.91,-5.3702000000000005,0.0,-11.2286
23.92,-4.882000000000001,0.0,-12.205
23.93,-4.882000000000001,0.0,-12.205
23.94,-6.3466000000000005,0.4882,-12.693200000000001
23.95,-5.3702000000000005,0.9764,-12.693200000000001
23.96,-5.3702000000000005,0.0,-11.716800000000001
23.97,-5.3702000000000005,0.4882,-12.693200000000001
23.98,-4.882000000000001,0.4882,-11.716800000000001
23.990000000000002,-4.882000000000001,-0.4882,-11.716800000000001
24.0,-4.882000000000001,1.9528,-11.716800000000001
24.01,-5.8584000000000005,0.9764,-12.693200000000001
24.02,-4.882000000000001,0.4882,-11.716800000000001
24.03,-4.882000000000001,0.9764,-11.716800000000001
24.04,-4.882000000000001,0.9764,-12.693200000000001
24.05,-5.3702000000000005,2.4410000000000003,-11.716800000000001
24.060000000000002,-5.8584000000000005,1.9528,-11.2286
24.07,-5.3702000000000005,1.4646000000000001,-10.740400000000001
24.080000000000002,-5.3702000000000005,0.9764,-11.2286
24.09,-5.3702000000000005,1.9528,-11.716800000000001
24.1,-4.882000000000001,1.4646000000000001,-11.716800000000001
24.11,-5.3702000000000005,0.9764,-11.716800000000001
24.12,-5.3702000000000005,2.4410000000000003,-10.740400000000001
24.13,-6.3466000000000005,1.4646000000000001,-11.716800000000001
24.14,-5.8584000000000005,2.4410000000000003,-10.740400000000001
24.150000000000002,-5.3702000000000005,1.9528,-11.716800000000001
24.16,-6.3466000000000005,2.4410000000000003,-11.2286
24.17,-5.8584000000000005,1.4646000000000001,-11.2286
24.18,-5.3702000000000005,2.4410000000000003,-10.740400000000001
24.19,-4.882000000000001,2.4410000000000003,-10.2522
24.2,-5.8584000000000005,1.9528,-10.740400000000001
24.21,-5.8584000000000005,1.4646000000000001,-10.740400000000001
24.22,-5.3702000000000005,2.4410000000000003,-10.2522
24.23,-5.8584000000000005,1.9528,-10.2522
24.240000000000002,-5.3702000000000005,2.4410000000000003,-10.2522
24.25,-6.3466000000000005,1.4646000000000001,-9.764000000000001
24.26,-5.8584000000000005,2.9292000000000002,-10.2522
24.27,-6.8348,2.4410000000000003,-10.740400000000001
24.28,-5.8584000000000005,1.4646000000000001,-10.2522
24.29,-6.3466000000000005,1.9528,-10.2522
24.3,-6.8348,3.4174,-9.764000000000001
24.310000000000002,-5.8584000000000005,2.4410000000000003,-10.2522
24.32,-5.8584000000000005,2.4410000000000003,-10.2522
24.330000000000002,-7.8112,2.4410000000000003,-9.2758
24.34,-6.8348,2.4410000000000003,-10.2522
24.35,-6.3466000000000005,2.9292000000000002,-9.764000000000001
24.36,-6.8348,2.9292000000000002,-8.787600000000001
24.37,-7.323,2.4410000000000003,-9.764000000000001
24.38,-6.8348,2.9292000000000002,-9.2758
24.39,-7.323,2.9292000000000002,-9.2758
24.400000000000002,-6.8348,2.9292000000000002,-9.2758
24.41,-7.8112,2.9292000000000002,-9.2758
24.42,-7.323,2.9292000000000002,-8.787600000000001
24.43,-7.323,2.4410000000000003,-9.2758
24.44,-7.8112,3.9056,-9.2758
24.45,-7.8112,2.9292000000000002,-9.2758
24.46,-7.323,2.9292000000000002,-8.787600000000001
24.47,-7.323,2.9292000000000002,-9.764000000000001
24.48,-7.8112,2.9292000000000002,-8.787600000000001
24.490000000000002,-7.8112,2.9292000000000002,-8.787600000000001
24.5,-7.323,3.4174,-8.787600000000001
24.51,-7.8112,3.4174,-8.2994
24.52,-8.2994,2.9292000000000002,-8.2994
24.53,-8.787600000000001,3.4174,-8.787600000000001
24.54,-8.2994,2.9292000000000002,-7.8112
24.55,-8.2994,2.4410000000000003,-7.8112
24.560000000000002,-8.2994,2.4410000000000003,-8.2994
24.57,-8.787600000000001,3.9056,-7.8112
24.580000000000002,-9.2758,3.4174,-8.2994
24.59,-8.787600000000001,3.4174,-8.2994
24.6,-8.787600000000001,2.9292000000000002,-8.2994
24.61,-9.2758,2.9292000000000002,-8.2994
24.62,-8.2994,2.4410000000000003,-7.8112
24.63,-9.2758,2.9292000000000002,-8.787600000000001
24.64,-9.764000000000001,2.9292000000000002,-7.8112
24.650000000000002,-9.2758,2.4410000000000003,-7.8112
24.66,-9.2758,2.4410000000000003,-8.2994
24.67,-9.764000000000001,2.9292000000000002,-6.8348
24.68,-9.2758,2.9292000000000002,-7.323
24.69,-10.2522,2.9292000000000002,-7.8112
24.7,-10.2522,2.9292000000000002,-7.323
24.71,-9.2758,2.4410000000000003,-7.8112
24.72,-9.764000000000001,1.9528,-7.323
24.73,-9.764000000000001,1.9528,-8.2994
24.740000000000002,-10.2522,1.9528,-6.8348
24.75,-10.2522,2.4410000000000003,-7.8112
24.76,-11.2286,2.9292000000000002,-6.3466000000000005
24.77,-9.764000000000001,2.4410000000000003,-7.323
24.78,-10.740400000000001,2.4410000000000003,-6.3466000000000005
24.79,-9.764000000000001,1.9528,-7.8112
24.8,-10.740400000000001,2.4410000000000003,-7.323
24.810000000000002,-9.2758,2.4410000000000003,-7.323
24.82,-11.2286,1.4646000000000001,-7.323
24.830000000000002,-11.2286,1.4646000000000001,-8.2994
24.84,-11.2286,0.4882,-7.323
24.85,-11.716800000000001,2.4410000000000003,-7.8112
24.86,-11.2286,1.4646000000000001,-7.323
24.87,-11.716800000000001,1.9528,-6.8348
24.88,-11.716800000000001,0.9764,-7.323
24.89,-10.740400000000001,0.9764,-7.8112
24.900000000000002,-11.2286,0.9764,-7.8112
24.91,-10.740400000000001,1.9528,-6.3466000000000005
24.92,-11.2286,0.4882,-6.8348
24.93,-11.2286,0.0,-7.323
24.94,-11.716800000000001,0.0,-6.3466000000000005
24.95,-11.2286,0.9764,-7.8112
24.96,-10.740400000000001,0.4882,-7.323
24.97,-12.205,0.4882,-7.8112
24.98,-11.716800000000001,0.0,-7.8112
24.990000000000002,-11.716800000000001,0.4882,-8.2994
25.0,-12.693200000000001,-0.4882,-7.8112
25.01,-11.716800000000001,-0.4882,-6.8348
25.02,-13.1814,0.4882,-6.8348
25.03,-12.205,0.0,-6.8348
25.04,-12.205,0.4882,-6.3466000000000005
25.05,-13.1814,-0.4882,-7.8112
25.060000000000002,-12.205,-0.9764,-7.323
25.07,-12.205,-0.9764,-7.323
25.080000000000002,-12.205,-0.4882,-7.8112
25.09,-12.205,-0.9764,-7.323
25.1,-12.205,-0.4882,-7.8112
25.11,-11.716800000000001,-2.4410000000000003,-7.8112
25.12,-12.205,-1.4646000000000001,-7.323
25.13,-12.693200000000001,-0.9764,-7.8112
25.14,-12.205,-0.9764,-7.8112
25.150000000000002,-12.205,-1.9528,-7.8112
25.16,-12.693200000000001,-1.4646000000000001,-8.787600000000001
25.17,-11.716800000000001,-1.9528,-7.8112
25.18,-12.693200000000001,-2.9292000000000002,-7.8112
25.19,-11.716800000000001,-2.9292000000000002,-8.2994
25.2,-12.693200000000001,-2.9292000000000002,-8.2994
25.21,-12.693200000000001,-1.9528,-8.2994
25.22,-12.205,-2.4410000000000003,-7.323
25.23,-12.693200000000001,-1.9528,-7.8112
25.240000000000002,-12.205,-2.4410000000000003,-8.2994
25.25,-12.205,-3.4174,-7.8112
25.26,-12.693200000000001,-2.9292000000000002,-8.2994
25.27,-11.716800000000001,-2.4410000000000003,-8.2994
25.28,-12.205,-3.4174,-8.787600000000001
25.29,-11.716800000000001,-2.9292000000000002,-8.2994
25.3,-12.205,-3.4174,-8.2994
25.310000000000002,-12.205,-3.9056,-8.787600000000001
25.32,-12.693200000000001,-3.9056,-8.2994
25.330000000000002,-11.716800000000001,-3.4174,-8.787600000000001
25.34,-12.205,-2.9292000000000002,-8.787600000000001
25.35,-12.205,-3.4174,-8.2994
25.36,-12.205,-4.393800000000001,-8.787600000000001
25.37,-12.205,-3.9056,-9.2758
25.38,-12.205,-4.393800000000001,-8.2994
25.39,-11.716800000000001,-4.882000000000001,-8.787600000000001
25.400000000000002,-11.2286,-3.9056,-8.787600000000001
25.41,-12.205,-4.882000000000001,-9.2758
25.42,-11.716800000000001,-4.882000000000001,-9.2758
25.43,-11.2286,-5.3702000000000005,-9.2758
25.44,-12.205,-4.882000000000001,-8.787600000000001
25.45,-12.205,-5.3702000000000005,-9.2758
25.46,-12.693200000000001,-3.9056,-9.764000000000001
25.47,-10.740400000000001,-5.3702000000000005,-9.764000000000001
25.48,-10.740400000000001,-4.882000000000001,-9.2758
25.490000000000002,-11.716800000000001,-5.3702000000000005,-9.2758
25.5,-11.2286,-5.8584000000000005,-10.740400000000001
25.51,-11.716800000000001,-4.882000000000001,-9.764000000000001
25.52,-11.716800000000001,-5.3702000000000005,-9.764000000000001
25.53,-11.2286,-5.3702000000000005,-9.764000000000001
25.54,-10.2522,-5.3702000000000005,-10.2522
25.55,-11.2286,-4.882000000000001,-10.740400000000001
25.560000000000002,-11.2286,-6.3466000000000005,-10.2522
25.57,-10.2522,-6.3466000000000005,-10.2522
25.580000000000002,-10.2522,-6.3466000000000005,-9.764000000000001
25.59,-11.2286,-6.8348,-10.740400000000001
25.6,-11.2286,-5.8584000000000005,-10.2522
25.61,-10.2522,-5.3702000000000005,-9.764000000000001
25.62,-9.764000000000001,-6.3466000000000005,-10.740400000000001
25.63,-10.2522,-6.3466000000000005,-10.2522
25.64,-10.740400000000001,-6.8348,-11.2286
25.650000000000002,-10.2522,-5.8584000000000005,-11.2286
25.66,-9.764000000000001,-6.3466000000000005,-10.2522
25.67,-9.2758,-5.8584000000000005,-10.740400000000001
25.68,-9.2758,-5.8584000000000005,-12.205
25.69,-10.2522,-5.8584000000000005,-10.2522
25.7,-9.2758,-7.323,-11.2286
25.71,-9.2758,-6.3466000000000005,-11.2286
25.72,-9.764000000000001,-6.3466000000000005,-12.205
25.73,-9.2758,-4.882000000000001,-11.716800000000001
25.740000000000002,-8.787600000000001,-6.8348,-10.740400000000001
25.75,-9.2758,-6.3466000000000005,-11.716800000000001
25.76,-9.764000000000001,-5.8584000000000005,-11.2286
25.77,-8.787600000000001,-6.8348,-11.2286
25.78,-9.764000000000001,-6.8348,-12.205
25.79,-8.787600000000001,-7.323,-11.716800000000001
25.8,-8.787600000000001,-6.3466000000000005,-12.205
25.810000000000002,-8.2994,-6.3466000000000005,-12.693200000000001
25.82,-8.787600000000001,-6.8348,-12.205
25.830000000000002,-8.2994,-6.3466000000000005,-12.205
25.84,-7.8112,-6.3466000000000005,-11.716800000000001
25.85,-7.8112,-7.323,-12.205
25.86,-7.323,-6.8348,-12.693200000000001
25.87,-6.8348,-6.3466000000000005,-13.1814
25.88,-8.787600000000001,-6.8348,-12.205
25.89,-7.323,-6.8348,-13.1814
25.900000000000002,-7.8112,-5.8584000000000005,-13.1814
25.91,-7.323,-6.8348,-12.205
25.92,-6.3466000000000005,-5.8584000000000005,-12.693200000000001
25.93,-7.323,-7.323,-12.693200000000001
25.94,-5.8584000000000005,-7.323,-12.693200000000001
25.95,-6.8348,-6.8348,-13.1814
25.96,-6.3466000000000005,-5.3702000000000005,-13.1814
25.97,-6.3466000000000005,-7.323,-13.6696
25.98,-6.3466000000000005,-5.8584000000000005,-13.1814
25.990000000000002,-6.3466000000000005,-6.3466000000000005,-12.693200000000001
26.0,-5.8584000000000005,-6.8348,-13.1814
26.01,-5.3702000000000005,-6.3466000000000005,-13.6696
26.02,-6.3466000000000005,-6.8348,-13.1814
26.03,-4.393800000000001,-6.8348,-13.1814
26.04,-5.3702000000000005,-6.3466000000000005,-13.1814
26.05,-5.3702000000000005,-6.3466000000000005,-13.1814
26.060000000000002,-6.3466000000000005,-5.8584000000000005,-13.6696
26.07,-3.9056,-5.8584000000000005,-13.1814
26.080000000000002,-3.9056,-4.882000000000001,-13.6696
26.09,-4.882000000000001,-6.3466000000000005,-12.693200000000001
26.1,-4.393800000000001,-6.8348,-12.693200000000001
26.11,-5.3702000000000005,-4.882000000000001,-13.1814
26.12,-3.9056,-5.3702000000000005,-13.1814
26.13,-3.9056,-4.882000000000001,-13.6696
26.14,-4.393800000000001,-4.882000000000001,-14.1578
26.150000000000002,-4.393800000000001,-5.3702000000000005,-13.6696
26.16,-3.4174,-5.3702000000000005,-13.6696
26.17,-4.393800000000001,-4.393800000000001,-12.693200000000001
26.18,-3.9056,-5.8584000000000005,-13.1814
26.19,-3.4174,-4.393800000000001,-14.1578
26.2,-3.4174,-4.393800000000001,-13.1814
26.21,-2.9292000000000002,-4.393800000000001,-13.6696
26.22,-2.9292000000000002,-5.3702000000000005,-13.6696
26.23,-3.4174,-4.393800000000001,-13.1814
26.240000000000002,-1.9528,-3.4174,-13.1814
26.25,-2.4410000000000003,-4.882000000000001,-13.6696
26.26,-2.4410000000000003,-3.9056,-12.693200000000001
26.27,-2.9292000000000002,-4.393800000000001,-12.693200000000001
26.28,-2.9292000000000002,-3.9056,-14.1578
26.29,-2.4410000000000003,-2.9292000000000002,-13.1814
26.3,-2.9292000000000002,-4.393800000000001,-13.6696
26.310000000000002,-2.4410000000000003,-3.4174,-13.6696
26.32,-1.9528,-2.9292000000000002,-13.6696
26.330000000000002,-2.4410000000000003,-3.9056,-12.693200000000001
26.34,-1.4646000000000001,-2.9292000000000002,-12.693200000000001
26.35,-1.9528,-4.393800000000001,-13.6696
26.36,-1.9528,-2.9292000000000002,-12.693200000000001
26.37,-1.9528,-3.4174,-12.693200000000001
26.38,-1.9528,-2.4410000000000003,-13.1814
26.39,-1.9528,-2.4410000000000003,-13.1814
26.400000000000002,-1.4646000000000001,-1.9528,-12.693200000000001
26.41,-0.9764,-2.9292000000000002,-13.1814
26.42,-1.9528,-2.4410000000000003,-12.693200000000001
26.43,-0.9764,-1.9528,-12.693200000000001
26.44,-2.4410000000000003,-0.9764,-12.205
26.45,-1.4646000000000001,-1.4646000000000001,-12.693200000000001
26.46,-0.9764,-1.9528,-12.205
26.47,-1.4646000000000001,-1.9528,-12.205
26.48,-0.4882,-0.9764,-12.205
26.490000000000002,-1.4646000000000001,-1.9528,-12.205
26.5,-0.9764,-1.4646000000000001,-12.693200000000001
26.51,-0.9764,-1.4646000000000001,-13.1814
26.52,-0.9764,-0.9764,-13.1814
26.53,-1.4646000000000001,-0.9764,-12.693200000000001
26.54,-0.9764,0.0,-12.205
26.55,-0.9764,-0.9764,-11.2286
26.560000000000002,-0.9764,0.0,-12.693200000000001
26.57,0.4882,-0.4882,-11.716800000000001
26.580000000000002,0.0,0.0,-12.205
26.59,0.4882,-0.4882,-11.2286
26.6,-0.9764,0.0,-10.740400000000001
26.61,-0.4882,0.0,-11.2286
26.62,-0.4882,0.4882,-11.716800000000001
26.63,-0.9764,0.4882,-11.2286
26.64,-0.9764,0.0,-11.716800000000001
26.650000000000002,-1.4646000000000001,0.9764,-10.740400000000001
26.66,-0.4882,1.4646000000000001,-10.740400000000001
26.67,0.0,0.4882,-11.2286
26.68,-0.4882,0.9764,-11.2286
26.69,0.0,0.4882,-10.2522
26.7,-0.9764,1.4646000000000001,-10.740400000000001
26.71,0.0,1.4646000000000001,-10.2522
26.72,-0.4882,1.4646000000000001,-10.740400000000001
26.73,0.4882,1.9528,-10.2522
26.740000000000002,-0.4882,1.9528,-10.2522
26.75,0.0,2.4410000000000003,-9.764000000000001
26.76,-0.9764,1.9528,-9.764000000000001
26.77,0.4882,2.4410000000000003,-10.2522
26.78,-0.4882,0.9764,-10.2522
26.79,-0.9764,2.9292000000000002,-8.787600000000001
26.8,-1.9528,1.9528,-8.787600000000001
26.810000000000002,-1.4646000000000001,2.4410000000000003,-9.2758
26.82,-0.4882,2.4410000000000003,-9.764000000000001
26.830000000000002,-0.4882,1.9528,-8.787600000000001
26.84,-0.4882,3.4174,-8.787600000000001
26.85,0.0,2.9292000000000002,-8.2994
26.86,-0.9764,2.4410000000000003,-8.2994
26.87,-0.4882,2.4410000000000003,-8.787600000000001
26.88,-1.4646000000000001,2.4410000000000003,-8.787600000000001
26.89,-1.9528,2.4410000000000003,-7.8112
26.900000000000002,-0.9764,2.9292000000000002,-7.323
26.91,-0.9764,3.4174,-8.787600000000001
26.92,-0.9764,3.9056,-7.8112
26.93,-0.9764,3.9056,-7.8112
26.94,-1.4646000000000001,3.9056,-8.2994
26.95,-0.9764,3.9056,-7.323
26.96,-1.9528,4.393800000000001,-8.2994
26.97,-1.4646000000000001,3.4174,-7.8112
26.98,-1.4646000000000001,3.4174,-7.323
26.990000000000002,-0.9764,3.9056,-6.8348
27.0,-1.4646000000000001,3.9056,-7.323
27.01,-1.9528,4.393800000000001,-6.8348
27.02,-0.9764,3.9056,-6.3466000000000005
27.03,-1.4646000000000001,4.882000000000001,-5.8584000000000005
27.04,-1.9528,4.882000000000001,-5.8584000000000005
27.05,-1.9528,4.882000000000001,-6.3466000000000005
27.060000000000002,-1.9528,4.393800000000001,-6.3466000000000005
27.07,-1.9528,3.9056,-6.3466000000000005
27.080000000000002,-3.9056,3.9056,-6.3466000000000005
27.09,-2.9292000000000002,4.393800000000001,-6.3466000000000005
27.1,-2.4410000000000003,4.393800000000001,-5.8584000000000005
27.11,-2.9292000000000002,4.393800000000001,-5.8584000000000005
27.12,-2.9292000000000002,4.393800000000001,-5.8584000000000005
27.13,-2.4410000000000003,4.882000000000001,-4.882000000000001
27.14,-2.4410000000000003,5.3702000000000005,-5.3702000000000005
27.150000000000002,-3.4174,4.882000000000001,-5.8584000000000005
27.16,-2.9292000000000002,4.393800000000001,-5.3702000000000005
27.17,-3.4174,4.882000000000001,-4.393800000000001
27.18,-3.4174,5.8584000000000005,-5.3702000000000005
27.19,-2.9292000000000002,5.3702000000000005,-4.882000000000001
27.2,-2.9292000000000002,4.882000000000001,-4.393800000000001
27.21,-3.4174,4.882000000000001,-4.882000000000001
27.22,-3.9056,5.8584000000000005,-4.393800000000001
27.23,-4.393800000000001,4.393800000000001,-4.393800000000001
27.240000000000002,-3.4174,4.882000000000001,-3.9056
